sender,sender_type,sender_id,timestamp,meta,,ITI_value,choice,consent,diff_net_value,duration,ended_on,gain_color,left,left_side,loss_color,not_choice,picture_left,picture_right,points,points1Block,points2Block,points3Block,points4Block,points5Block,points6Block,pointsBlock,responded,response,response_action,right,right_side,switch_sides,time_commit,time_end,time_render,time_run,time_show,time_switch,totalPoints,totalPoints_practice,url
welcome,html.Screen,0_0,2022-07-15T14:08:04.151Z,"{""labjs_version"":""20.2.4"",""labjs_build"":{""flavor"":""production"",""commit"":""f5b4a49f956347addd546a832a3327688c2c0fef""},""location"":""https://run.pavlovia.org/Rey/loss-perception/"",""userAgent"":""Mozilla/5.0 (Windows NT 10.0; Win64; x64) AppleWebKit/537.36 (KHTML, like Gecko) Chrome/103.0.0.0 Safari/537.36"",""platform"":""Win32"",""language"":""en-GB"",""locale"":""en-GB"",""timeZone"":""Europe/London"",""timezoneOffset"":-60,""screen_width"":1920,""screen_height"":1080,""scroll_width"":1920,""scroll_height"":832,""window_innerWidth"":1920,""window_innerHeight"":880,""devicePixelRatio"":1}",,,,,,8156.923000000372,response,yellow,,,blue,,,,,0,0,0,0,0,0,0,,Continue,click #Continue,,,,23414.299999999814,23411.900000000373,15221.557,15240.700000000186,15254.977,23414.823,100,100,{}
consent,html.Form,0_1,2022-07-15T14:08:17.984Z,,,,,true,,13831.476999999813,form submission,,,,,,,,,,,,,,,,,,,,,,37246.5,37246.299999999814,23398.17,23414.5,23414.823,37253.527,,,
ProlificID,html.Form,0_2,2022-07-15T14:08:24.710Z,,,,,,,6719.472999999998,form submission,,,,,,,,,,,,,,,,,,,,,,43973.09999999963,43973,37236.816,37246.59999999963,37253.527,43981.295,,,
instructions,html.Form,0_3,2022-07-15T14:09:06.771Z,,,,,,,42053.40500000019,form submission,,,,,,,,,,,,,,,,,,,,,,86034.79999999981,86034.70000000019,43964.645,43973.200000000186,43981.295,86063.419,,,
Practice,canvas.Screen,0_4,2022-07-15T14:09:09.139Z,,,,,,,2336.481000000378,response,,,,,,,,,,,,,,,,,space,keypress(Space),,,,88403.20000000019,88399.90000000037,86030.097,86034.90000000037,86063.419,88411.551,,,
fixation,canvas.Screen,0_5_0_0,2022-07-15T14:09:09.631Z,,,,,,6,499.5439999999944,timeout,,,0.485,,,,,,,,,,,,,,,,,0.455,true,88895.29999999981,88894.545,88394.831,88403.79999999981,88411.551,88911.095,,,
stimulus,canvas.Screen,0_5_0_1,2022-07-15T14:09:12.629Z,,,,,,6,2997.782999999996,timeout,,0.455,0.485,,,https://raw.githubusercontent.com/carero2/loss-perception/main/png/0.455blue1yellowb%3D1w%3D100v%3D78.png,https://raw.githubusercontent.com/carero2/loss-perception/main/png/0.485blue1yellowb%3D1w%3D100v%3D78.png,,,,,,,,,,,,0.485,0.455,true,91892.70000000019,91892.028,88894.545,88895.40000000037,88911.095,91908.878,,,
choice,canvas.Screen,0_5_0_2,2022-07-15T14:09:12.631Z,,,,0,,6,NaN,skipped,,,0.485,,0,,,0,,,,,,,0,false,timeout,,,0.455,true,91894.79999999981,91892.028,,91894.5,,91908.878,,100,
timeout,canvas.Screen,0_5_0_3,2022-07-15T14:09:14.629Z,,,,,,6,1998.1140000000014,timeout,,,0.485,,,,,,,,,,,,,,,,,0.455,true,93892.5,93890.453,91892.028,91895.40000000037,91908.878,93906.992,,,
ITI,canvas.Screen,0_5_0_4,2022-07-15T14:09:15.127Z,,,,,,6,499.5920000000042,timeout,,,0.485,,,,,,,,,,,,,,,,,0.455,true,94390.59999999963,94390.003,93890.453,93893,93906.992,94406.584,,,
trial,flow.Sequence,0_5_0,2022-07-15T14:09:15.128Z,,,,,,6,5978.45199999999,completion,,,0.485,,,,,,,,,,,,,,,,,0.455,true,94391.70000000019,94390.003,88394.831,88403.70000000019,88411.551,94406.584,,,
fixation,canvas.Screen,0_5_1_0,2022-07-15T14:09:15.626Z,,,,,,18,499.64800000000105,timeout,,,0.545,,,,,,,,,,,,,,,,,0.455,true,94890.20000000019,94889.56,94390.003,94391.90000000037,94406.584,94906.232,,,
stimulus,canvas.Screen,0_5_1_1,2022-07-15T14:09:18.625Z,,,,,,18,2997.4639999999927,timeout,,0.455,0.545,,,https://raw.githubusercontent.com/carero2/loss-perception/main/png/0.455blue1yellowb%3D1w%3D100v%3D76.png,https://raw.githubusercontent.com/carero2/loss-perception/main/png/0.545blue1yellowb%3D1w%3D100v%3D76.png,,,,,,,,,,,,0.545,0.455,true,97888.59999999963,97887.153,94889.56,94890.40000000037,94906.232,97903.696,,,
choice,canvas.Screen,0_5_1_2,2022-07-15T14:09:18.630Z,,,,0,,18,NaN,skipped,,,0.545,,0,,,0,,,,,,,0,false,timeout,,,0.455,true,97893.5,97887.153,,97893.40000000037,,97903.696,,100,
timeout,canvas.Screen,0_5_1_3,2022-07-15T14:09:20.622Z,,,,,,18,1998.4300000000076,timeout,,,0.545,,,,,,,,,,,,,,,,,0.455,true,99886.20000000019,99885.496,97887.153,97894.20000000019,97903.696,99902.126,,,
ITI,canvas.Screen,0_5_1_4,2022-07-15T14:09:21.122Z,,,,,,18,499.54099999999744,timeout,,,0.545,,,,,,,,,,,,,,,,,0.455,true,100385.70000000019,100385.089,99885.496,99886.29999999981,99902.126,100401.667,,,
trial,flow.Sequence,0_5_1,2022-07-15T14:09:21.123Z,,,,,,18,5978.505000000005,completion,,,0.545,,,,,,,,,,,,,,,,,0.455,true,100387.09999999963,100385.089,94390.003,94391.90000000037,94406.584,100401.667,,,
fixation,canvas.Screen,0_5_2_0,2022-07-15T14:09:21.621Z,,,,,,12,499.778999999995,timeout,,,0.53,,,,,,,,,,,,,,,,,0.47,true,100885.20000000019,100884.645,100385.089,100387.20000000019,100401.667,100901.446,,,
stimulus,canvas.Screen,0_5_2_1,2022-07-15T14:09:22.493Z,,,,,,12,852.6539999996312,response,,0.47,0.53,,,https://raw.githubusercontent.com/carero2/loss-perception/main/png/0.47blue1yellowb%3D1w%3D100v%3D28.png,https://raw.githubusercontent.com/carero2/loss-perception/main/png/0.53blue1yellowb%3D1w%3D100v%3D28.png,,,,,,,,,true,f,keypress(f),0.53,0.47,true,101756.70000000019,101754.09999999963,100884.645,100885.20000000019,100901.446,101767.218,,,
choice,canvas.Screen,0_5_2_2,2022-07-15T14:09:24.486Z,,,,0.47,,12,1998.4089999999997,timeout,,,0.53,,0.53,,,6,,,,,,,6,,,,,0.47,true,103750.29999999981,103748.974,101750.53,101760,101767.218,103765.627,,106,
timeout,canvas.Screen,0_5_2_3,2022-07-15T14:09:24.490Z,,,,,,12,NaN,skipped,,,0.53,,,,,,,,,,,,,,,,,0.47,true,103753.90000000037,103748.974,,103753.5,,103765.627,,,
ITI,canvas.Screen,0_5_2_4,2022-07-15T14:09:24.986Z,,,,,,12,499.6490000000049,timeout,,,0.53,,,,,,,,,,,,,,,,,0.47,true,104249.29999999981,104248.586,103748.974,103754.20000000019,103765.627,104265.276,,,
trial,flow.Sequence,0_5_2,2022-07-15T14:09:24.986Z,,,,,,12,3846.9189999999944,completion,,,0.53,,,,,,,,,,,,,,,,,0.47,true,104249.5,104248.586,100385.089,100387.20000000019,100401.667,104265.276,,,
fixation,canvas.Screen,0_5_3_0,2022-07-15T14:09:25.485Z,,,,,,9,499.48099999999977,timeout,,,0.485,,,,,,,,,,,,,,,,,0.53,true,104748.70000000019,104748.103,104248.586,104249.59999999963,104265.276,104764.757,,,
stimulus,canvas.Screen,0_5_3_1,2022-07-15T14:09:25.825Z,,,,,,9,323.54299999981595,response,,0.53,0.485,,,https://raw.githubusercontent.com/carero2/loss-perception/main/png/0.53blue1yellowb%3D1w%3D100v%3D96.png,https://raw.githubusercontent.com/carero2/loss-perception/main/png/0.485blue1yellowb%3D1w%3D100v%3D96.png,,,,,,,,,true,j,keypress(j),0.485,0.53,true,105089.20000000019,105088.29999999981,104748.103,104748.90000000037,104764.757,105097.794,,,
choice,canvas.Screen,0_5_3_2,2022-07-15T14:09:27.816Z,,,,0.485,,9,1998.3590000000113,timeout,,,0.485,,0.53,,,3,,,,,,,9,,,,,0.53,true,107080.09999999963,107079.522,105081.176,105091.59999999963,105097.794,107096.153,,109,
timeout,canvas.Screen,0_5_3_3,2022-07-15T14:09:27.817Z,,,,,,9,NaN,skipped,,,0.485,,,,,,,,,,,,,,,,,0.53,true,107081,107079.522,,107080.90000000037,,107096.153,,,
ITI,canvas.Screen,0_5_3_4,2022-07-15T14:09:28.316Z,,,,,,9,499.64199999999255,timeout,,,0.485,,,,,,,,,,,,,,,,,0.53,true,107580,107579.091,107079.522,107081.09999999963,107096.153,107595.795,,,
trial,flow.Sequence,0_5_3,2022-07-15T14:09:28.316Z,,,,,,9,3313.8150000000023,completion,,,0.485,,,,,,,,,,,,,,,,,0.53,true,107580.09999999963,107579.091,104248.586,104249.5,104265.276,107595.795,,,
fixation,canvas.Screen,0_5_4_0,2022-07-15T14:09:28.816Z,,,,,,6,499.5939999999973,timeout,,,0.515,,,,,,,,,,,,,,,,,0.485,true,108080.09999999963,108078.855,107579.091,107580.20000000019,107595.795,108095.389,,,
stimulus,canvas.Screen,0_5_4_1,2022-07-15T14:09:29.421Z,,,,,,6,587.3110000001907,response,,0.485,0.515,,,https://raw.githubusercontent.com/carero2/loss-perception/main/png/0.485blue1yellowb%3D1w%3D100v%3D1.png,https://raw.githubusercontent.com/carero2/loss-perception/main/png/0.515blue1yellowb%3D1w%3D100v%3D1.png,,,,,,,,,true,j,keypress(j),0.515,0.485,true,108684.40000000037,108682.70000000019,108078.855,108080.40000000037,108095.389,108694.894,,,
choice,canvas.Screen,0_5_4_2,2022-07-15T14:09:31.413Z,,,,0.515,,6,1998.551999999996,timeout,,,0.515,,0.485,,,-3,,,,,,,6,,,,,0.485,true,110677.20000000019,110676.655,108678.257,108686,108694.894,110693.446,,106,
timeout,canvas.Screen,0_5_4_3,2022-07-15T14:09:31.414Z,,,,,,6,NaN,skipped,,,0.515,,,,,,,,,,,,,,,,,0.485,true,110678.20000000019,110676.655,,110678.09999999963,,110693.446,,,
ITI,canvas.Screen,0_5_4_4,2022-07-15T14:09:31.913Z,,,,,,6,499.47200000000885,timeout,,,0.515,,,,,,,,,,,,,,,,,0.485,true,111176.79999999981,111176.258,110676.655,110678.20000000019,110693.446,111192.918,,,
trial,flow.Sequence,0_5_4,2022-07-15T14:09:31.913Z,,,,,,6,3580.4630000000034,completion,,,0.515,,,,,,,,,,,,,,,,,0.485,true,111177.09999999963,111176.258,107579.091,107580.09999999963,107595.795,111192.918,,,
fixation,canvas.Screen,0_5_5_0,2022-07-15T14:09:32.412Z,,,,,,6,499.7129999999888,timeout,,,0.545,,,,,,,,,,,,,,,,,0.515,false,111676.09999999963,111675.732,111176.258,111177.09999999963,111192.918,111692.631,,,
stimulus,canvas.Screen,0_5_5_1,2022-07-15T14:09:33.540Z,,,,,,6,1108.869000000006,response,,0.545,0.545,,,https://raw.githubusercontent.com/carero2/loss-perception/main/png/0.545blue1yellowb%3D1w%3D100v%3D61.png,https://raw.githubusercontent.com/carero2/loss-perception/main/png/0.515blue1yellowb%3D1w%3D100v%3D61.png,,,,,,,,,true,f,keypress(f),0.515,0.515,false,112803.40000000037,112801.5,111675.732,111676.29999999981,111692.631,112808.305,,,
choice,canvas.Screen,0_5_5_2,2022-07-15T14:09:35.529Z,,,,0.545,,6,1998.2530000000115,timeout,,,0.545,,0.515,,,-9,,,,,,,-3,,,,,0.515,false,114792.59999999963,114789.96,112791.521,112804.90000000037,112808.305,114806.558,,97,
timeout,canvas.Screen,0_5_5_3,2022-07-15T14:09:35.533Z,,,,,,6,NaN,skipped,,,0.545,,,,,,,,,,,,,,,,,0.515,false,114796.90000000037,114789.96,,114796.29999999981,,114806.558,,,
ITI,canvas.Screen,0_5_5_4,2022-07-15T14:09:36.026Z,,,,,,6,499.5599999999977,timeout,,,0.545,,,,,,,,,,,,,,,,,0.515,false,115290.09999999963,115289.494,114789.96,114797.29999999981,114806.558,115306.118,,,
trial,flow.Sequence,0_5_5,2022-07-15T14:09:36.026Z,,,,,,6,4096.576000000001,completion,,,0.545,,,,,,,,,,,,,,,,,0.515,false,115290.20000000019,115289.494,111176.258,111177.09999999963,111192.918,115306.118,,,
fixation,canvas.Screen,0_5_6_0,2022-07-15T14:09:36.527Z,,,,,,12,499.58400000000256,timeout,,,0.53,,,,,,,,,,,,,,,,,0.47,true,115790.40000000037,115789.149,115289.494,115290.20000000019,115306.118,115805.702,,,
stimulus,canvas.Screen,0_5_6_1,2022-07-15T14:09:37.240Z,,,,,,12,697.6980000003678,response,,0.47,0.53,,,https://raw.githubusercontent.com/carero2/loss-perception/main/png/0.47blue1yellowb%3D1w%3D100v%3D93.png,https://raw.githubusercontent.com/carero2/loss-perception/main/png/0.53blue1yellowb%3D1w%3D100v%3D93.png,,,,,,,,,true,j,keypress(j),0.53,0.47,true,116504.20000000019,116503.40000000037,115789.149,115790.70000000019,115805.702,116521.784,,,
choice,canvas.Screen,0_5_6_2,2022-07-15T14:09:39.240Z,,,,0.53,,12,1998.5430000000051,timeout,,,0.53,,0.47,,,-6,,,,,,,-9,,,,,0.47,true,118504,118503.479,116505.121,116505.90000000037,116521.784,118520.327,,91,
timeout,canvas.Screen,0_5_6_3,2022-07-15T14:09:39.242Z,,,,,,12,NaN,skipped,,,0.53,,,,,,,,,,,,,,,,,0.47,true,118505.40000000037,118503.479,,118505.20000000019,,118520.327,,,
ITI,canvas.Screen,0_5_6_4,2022-07-15T14:09:39.741Z,,,,,,12,499.4219999999914,timeout,,,0.53,,,,,,,,,,,,,,,,,0.47,true,119004.40000000037,119003.158,118503.479,118505.40000000037,118520.327,119019.749,,,
trial,flow.Sequence,0_5_6,2022-07-15T14:09:39.741Z,,,,,,12,3697.0399999999936,completion,,,0.53,,,,,,,,,,,,,,,,,0.47,true,119004.70000000019,119003.158,115289.494,115290.20000000019,115306.118,119019.749,,,
fixation,canvas.Screen,0_5_7_0,2022-07-15T14:09:40.240Z,,,,,,18,499.6420000000071,timeout,,,0.545,,,,,,,,,,,,,,,,,0.455,false,119503.59999999963,119502.673,119003.158,119004.79999999981,119019.749,119519.391,,,
stimulus,canvas.Screen,0_5_7_1,2022-07-15T14:09:40.805Z,,,,,,18,548.6089999999967,response,,0.545,0.545,,,https://raw.githubusercontent.com/carero2/loss-perception/main/png/0.545blue1yellowb%3D1w%3D100v%3D69.png,https://raw.githubusercontent.com/carero2/loss-perception/main/png/0.455blue1yellowb%3D1w%3D100v%3D69.png,,,,,,,,,true,j,keypress(j),0.455,0.455,false,120068.5,120068,119502.673,119503.59999999963,119519.391,120085.53,,,
choice,canvas.Screen,0_5_7_2,2022-07-15T14:09:42.805Z,,,,0.455,,18,1998.392000000007,timeout,,,0.545,,0.545,,,9,,,,,,,0,,,,,0.455,false,122068.59999999963,122067.319,120068.821,120069.90000000037,120085.53,122083.922,,100,
timeout,canvas.Screen,0_5_7_3,2022-07-15T14:09:42.807Z,,,,,,18,NaN,skipped,,,0.545,,,,,,,,,,,,,,,,,0.455,false,122070.90000000037,122067.319,,122070.70000000019,,122083.922,,,
ITI,canvas.Screen,0_5_7_4,2022-07-15T14:09:43.304Z,,,,,,18,499.6149999999907,timeout,,,0.545,,,,,,,,,,,,,,,,,0.455,false,122567.59999999963,122566.908,122067.319,122071.09999999963,122083.922,122583.537,,,
trial,flow.Sequence,0_5_7,2022-07-15T14:09:43.304Z,,,,,,18,3547.1589999999997,completion,,,0.545,,,,,,,,,,,,,,,,,0.455,false,122567.70000000019,122566.908,119003.158,119004.70000000019,119019.749,122583.537,,,
fixation,canvas.Screen,0_5_8_0,2022-07-15T14:09:43.803Z,,,,,,6,499.5149999999994,timeout,,,0.515,,,,,,,,,,,,,,,,,0.485,false,123066.90000000037,123066.389,122566.908,122567.90000000037,122583.537,123083.052,,,
stimulus,canvas.Screen,0_5_8_1,2022-07-15T14:09:44.457Z,,,,,,6,636.7479999998177,response,,0.515,0.515,,,https://raw.githubusercontent.com/carero2/loss-perception/main/png/0.515blue1yellowb%3D1w%3D100v%3D97.png,https://raw.githubusercontent.com/carero2/loss-perception/main/png/0.485blue1yellowb%3D1w%3D100v%3D97.png,,,,,,,,,true,j,keypress(j),0.485,0.485,false,123720.70000000019,123719.79999999981,123066.389,123066.90000000037,123083.052,123732.545,,,
choice,canvas.Screen,0_5_8_2,2022-07-15T14:09:46.451Z,,,,0.485,,6,1998.4279999999999,timeout,,,0.515,,0.515,,,3,,,,,,,3,,,,,0.485,false,125714.70000000019,125714.244,123715.887,123721.79999999981,123732.545,125730.973,,103,
timeout,canvas.Screen,0_5_8_3,2022-07-15T14:09:46.452Z,,,,,,6,NaN,skipped,,,0.515,,,,,,,,,,,,,,,,,0.485,false,125715.5,125714.244,,125715.40000000037,,125730.973,,,
ITI,canvas.Screen,0_5_8_4,2022-07-15T14:09:46.950Z,,,,,,6,499.54899999999907,timeout,,,0.515,,,,,,,,,,,,,,,,,0.485,false,126214.20000000019,126213.794,125714.244,125715.5,125730.973,126230.522,,,
trial,flow.Sequence,0_5_8,2022-07-15T14:09:46.951Z,,,,,,6,3630.256999999998,completion,,,0.515,,,,,,,,,,,,,,,,,0.485,false,126214.40000000037,126213.794,122566.908,122567.79999999981,122583.537,126230.522,,,
fixation,canvas.Screen,0_5_9_0,2022-07-15T14:09:47.450Z,,,,,,6,499.5599999999977,timeout,,,0.485,,,,,,,,,,,,,,,,,0.455,true,126713.90000000037,126713.401,126213.794,126214.40000000037,126230.522,126730.082,,,
stimulus,canvas.Screen,0_5_9_1,2022-07-15T14:09:48.382Z,,,,,,6,910.3180000003777,response,,0.455,0.485,,,https://raw.githubusercontent.com/carero2/loss-perception/main/png/0.455blue1yellowb%3D1w%3D100v%3D1.png,https://raw.githubusercontent.com/carero2/loss-perception/main/png/0.485blue1yellowb%3D1w%3D100v%3D1.png,,,,,,,,,true,f,keypress(f),0.485,0.455,true,127645.59999999963,127640.40000000037,126713.401,126714,126730.082,127662.619,,,
choice,canvas.Screen,0_5_9_2,2022-07-15T14:09:50.381Z,,,,0.455,,6,1998.383999999991,timeout,,,0.485,,0.485,,,9,,,,,,,12,,,,,0.455,true,129644.90000000037,129644.342,127645.972,127647.29999999981,127662.619,129661.003,,112,
timeout,canvas.Screen,0_5_9_3,2022-07-15T14:09:50.382Z,,,,,,6,NaN,skipped,,,0.485,,,,,,,,,,,,,,,,,0.455,true,129645.79999999981,129644.342,,129645.70000000019,,129661.003,,,
ITI,canvas.Screen,0_5_9_4,2022-07-15T14:09:50.881Z,,,,,,6,499.60400000000664,timeout,,,0.485,,,,,,,,,,,,,,,,,0.455,true,130144.79999999981,130144.018,129644.342,129645.79999999981,129661.003,130160.607,,,
trial,flow.Sequence,0_5_9,2022-07-15T14:09:50.881Z,,,,,,6,3913.495999999999,completion,,,0.485,,,,,,,,,,,,,,,,,0.455,true,130145.20000000019,130144.018,126213.794,126214.40000000037,126230.522,130160.607,,,
fixation,canvas.Screen,0_5_10_0,2022-07-15T14:09:51.380Z,,,,,,6,499.6319999999978,timeout,,,0.545,,,,,,,,,,,,,,,,,0.515,false,130644.09999999963,130643.57,130144.018,130145.29999999981,130160.607,130660.239,,,
stimulus,canvas.Screen,0_5_10_1,2022-07-15T14:09:52.014Z,,,,,,6,615.5609999998123,response,,0.545,0.545,,,https://raw.githubusercontent.com/carero2/loss-perception/main/png/0.545blue1yellowb%3D1w%3D100v%3D42.png,https://raw.githubusercontent.com/carero2/loss-perception/main/png/0.515blue1yellowb%3D1w%3D100v%3D42.png,,,,,,,,,true,j,keypress(j),0.515,0.515,false,131278,131275.7999999998,130643.57,130644.20000000019,130660.239,131293.006,,,
choice,canvas.Screen,0_5_10_2,2022-07-15T14:09:54.012Z,,,,0.515,,6,1998.3940000000002,timeout,,,0.545,,0.545,,,-3,,,,,,,9,,,,,0.515,false,133275.90000000037,133274.783,131276.331,131280.59999999963,131293.006,133291.4,,109,
timeout,canvas.Screen,0_5_10_3,2022-07-15T14:09:54.015Z,,,,,,6,NaN,skipped,,,0.545,,,,,,,,,,,,,,,,,0.515,false,133278.59999999963,133274.783,,133278.2999999998,,133291.4,,,
ITI,canvas.Screen,0_5_10_4,2022-07-15T14:09:54.511Z,,,,,,6,499.55300000001444,timeout,,,0.545,,,,,,,,,,,,,,,,,0.515,false,133775,133774.308,133274.783,133278.90000000037,133291.4,133790.953,,,
trial,flow.Sequence,0_5_10,2022-07-15T14:09:54.512Z,,,,,,6,3613.7009999999864,completion,,,0.545,,,,,,,,,,,,,,,,,0.515,false,133775.2000000002,133774.308,130144.018,130145.29999999981,130160.607,133790.953,,,
fixation,canvas.Screen,0_5_11_0,2022-07-15T14:09:55.012Z,,,,,,9,499.6239999999816,timeout,,,0.485,,,,,,,,,,,,,,,,,0.53,false,134275.2999999998,134274.045,133774.308,133775.40000000037,133790.953,134290.577,,,
stimulus,canvas.Screen,0_5_11_1,2022-07-15T14:09:56.069Z,,,,,,9,1036.7229999998235,response,,0.485,0.485,,,https://raw.githubusercontent.com/carero2/loss-perception/main/png/0.485blue1yellowb%3D1w%3D100v%3D69.png,https://raw.githubusercontent.com/carero2/loss-perception/main/png/0.53blue1yellowb%3D1w%3D100v%3D69.png,,,,,,,,,true,f,keypress(f),0.53,0.53,false,135333,135327.2999999998,134274.045,134275.59999999963,134290.577,135356.91,,,
choice,canvas.Screen,0_5_11_2,2022-07-15T14:09:58.075Z,,,,0.485,,9,1997.8360000000102,timeout,,,0.485,,0.53,,,3,,,,,,,12,,,,,0.53,false,137338.7000000002,137338.124,135339.702,135339.7000000002,135356.91,137354.746,,112,
timeout,canvas.Screen,0_5_11_3,2022-07-15T14:09:58.076Z,,,,,,9,NaN,skipped,,,0.485,,,,,,,,,,,,,,,,,0.53,false,137339.7999999998,137338.124,,137339.7000000002,,137354.746,,,
ITI,canvas.Screen,0_5_11_4,2022-07-15T14:09:58.575Z,,,,,,9,499.5539999999746,timeout,,,0.485,,,,,,,,,,,,,,,,,0.53,false,137838.90000000037,137837.715,137338.124,137339.90000000037,137354.746,137854.3,,,
trial,flow.Sequence,0_5_11,2022-07-15T14:09:58.576Z,,,,,,9,4046.761999999988,completion,,,0.485,,,,,,,,,,,,,,,,,0.53,false,137839.5,137837.715,133774.308,133775.40000000037,133790.953,137854.3,,,
fixation,canvas.Screen,0_5_12_0,2022-07-15T14:09:59.075Z,,,,,,6,499.7280000000028,timeout,,,0.515,,,,,,,,,,,,,,,,,0.485,true,138338.40000000037,138337.295,137837.715,137839.7999999998,137854.3,138354.028,,,
stimulus,canvas.Screen,0_5_12_1,2022-07-15T14:09:59.951Z,,,,,,6,859.1720000001951,response,,0.485,0.515,,,https://raw.githubusercontent.com/carero2/loss-perception/main/png/0.485blue1yellowb%3D1w%3D100v%3D60.png,https://raw.githubusercontent.com/carero2/loss-perception/main/png/0.515blue1yellowb%3D1w%3D100v%3D60.png,,,,,,,,,true,f,keypress(f),0.515,0.485,true,139214.2999999998,139213.2000000002,138337.295,138338.59999999963,138354.028,139219.866,,,
choice,canvas.Screen,0_5_12_2,2022-07-15T14:10:01.939Z,,,,0.485,,6,1998.554999999993,timeout,,,0.515,,0.515,,,3,,,,,,,15,,,,,0.485,true,141202.2999999998,141201.61,139203.145,139217.7999999998,139219.866,141218.421,,115,
timeout,canvas.Screen,0_5_12_3,2022-07-15T14:10:01.940Z,,,,,,6,NaN,skipped,,,0.515,,,,,,,,,,,,,,,,,0.485,true,141203.7000000002,141201.61,,141203.5,,141218.421,,,
ITI,canvas.Screen,0_5_12_4,2022-07-15T14:10:02.438Z,,,,,,6,499.44200000001,timeout,,,0.515,,,,,,,,,,,,,,,,,0.485,true,141702,141701.279,141201.61,141203.7999999998,141218.421,141717.863,,,
trial,flow.Sequence,0_5_12,2022-07-15T14:10:02.439Z,,,,,,6,3846.979000000021,completion,,,0.515,,,,,,,,,,,,,,,,,0.485,true,141702.2000000002,141701.279,137837.715,137839.7999999998,137854.3,141717.863,,,
fixation,canvas.Screen,0_5_13_0,2022-07-15T14:10:02.938Z,,,,,,6,499.59500000000116,timeout,,,0.485,,,,,,,,,,,,,,,,,0.455,true,142201.40000000037,142200.793,141701.279,141702.2000000002,141717.863,142217.458,,,
stimulus,canvas.Screen,0_5_13_1,2022-07-15T14:10:03.677Z,,,,,,6,720.6419999996142,response,,0.455,0.485,,,https://raw.githubusercontent.com/carero2/loss-perception/main/png/0.455blue1yellowb%3D1w%3D100v%3D68.png,https://raw.githubusercontent.com/carero2/loss-perception/main/png/0.485blue1yellowb%3D1w%3D100v%3D68.png,,,,,,,,,true,f,keypress(f),0.485,0.455,true,142940.59999999963,142938.09999999963,142200.793,142201.5,142217.458,142950.103,,,
choice,canvas.Screen,0_5_13_2,2022-07-15T14:10:05.669Z,,,,0.455,,6,1998.4290000000037,timeout,,,0.485,,0.485,,,9,,,,,,,24,,,,,0.455,true,144933,144931.953,142933.468,142944.7000000002,142950.103,144948.532,,124,
timeout,canvas.Screen,0_5_13_3,2022-07-15T14:10:05.672Z,,,,,,6,NaN,skipped,,,0.485,,,,,,,,,,,,,,,,,0.455,true,144935.2000000002,144931.953,,144934.90000000037,,144948.532,,,
ITI,canvas.Screen,0_5_13_4,2022-07-15T14:10:06.168Z,,,,,,6,499.5599999999977,timeout,,,0.485,,,,,,,,,,,,,,,,,0.455,true,145432,145431.472,144931.953,144935.40000000037,144948.532,145448.092,,,
trial,flow.Sequence,0_5_13,2022-07-15T14:10:06.169Z,,,,,,6,3713.6089999999967,completion,,,0.485,,,,,,,,,,,,,,,,,0.455,true,145432.59999999963,145431.472,141701.279,141702.2000000002,141717.863,145448.092,,,
fixation,canvas.Screen,0_5_14_0,2022-07-15T14:10:06.668Z,,,,,,9,499.59399999998277,timeout,,,0.485,,,,,,,,,,,,,,,,,0.53,false,145931.90000000037,145931.049,145431.472,145432.90000000037,145448.092,145947.686,,,
stimulus,canvas.Screen,0_5_14_1,2022-07-15T14:10:07.276Z,,,,,,9,590.5140000001993,response,,0.485,0.485,,,https://raw.githubusercontent.com/carero2/loss-perception/main/png/0.485blue1yellowb%3D1w%3D100v%3D60.png,https://raw.githubusercontent.com/carero2/loss-perception/main/png/0.53blue1yellowb%3D1w%3D100v%3D60.png,,,,,,,,,true,f,keypress(f),0.53,0.53,false,146539.7000000002,146538.2000000002,145931.049,145932.09999999963,145947.686,146547.26,,,
choice,canvas.Screen,0_5_14_2,2022-07-15T14:10:09.267Z,,,,0.485,,9,1998.2079999999842,timeout,,,0.485,,0.53,,,3,,,,,,,27,,,,,0.53,false,148530.09999999963,148528.915,146530.559,146543.59999999963,146547.26,148545.468,,127,
timeout,canvas.Screen,0_5_14_3,2022-07-15T14:10:09.269Z,,,,,,9,NaN,skipped,,,0.485,,,,,,,,,,,,,,,,,0.53,false,148533.09999999963,148528.915,,148532.7999999998,,148545.468,,,
ITI,canvas.Screen,0_5_14_4,2022-07-15T14:10:09.766Z,,,,,,9,499.64300000001094,timeout,,,0.485,,,,,,,,,,,,,,,,,0.53,false,149029.59999999963,149028.516,148528.915,148533.2999999998,148545.468,149045.111,,,
trial,flow.Sequence,0_5_14,2022-07-15T14:10:09.767Z,,,,,,9,3580.423999999999,completion,,,0.485,,,,,,,,,,,,,,,,,0.53,false,149030.2000000002,149028.516,145431.472,145432.7999999998,145448.092,149045.111,,,
fixation,canvas.Screen,0_5_15_0,2022-07-15T14:10:10.265Z,,,,,,18,499.57399999999325,timeout,,,0.545,,,,,,,,,,,,,,,,,0.455,false,149528.7999999998,149528.136,149028.516,149030.40000000037,149045.111,149544.685,,,
stimulus,canvas.Screen,0_5_15_1,2022-07-15T14:10:10.843Z,,,,,,18,560.4149999996298,response,,0.545,0.545,,,https://raw.githubusercontent.com/carero2/loss-perception/main/png/0.545blue1yellowb%3D1w%3D100v%3D22.png,https://raw.githubusercontent.com/carero2/loss-perception/main/png/0.455blue1yellowb%3D1w%3D100v%3D22.png,,,,,,,,,true,j,keypress(j),0.455,0.455,false,150107,150105.09999999963,149528.136,149528.90000000037,149544.685,150110.876,,,
choice,canvas.Screen,0_5_15_2,2022-07-15T14:10:12.830Z,,,,0.455,,18,1998.396000000008,timeout,,,0.545,,0.545,,,9,,,,,,,36,,,,,0.455,false,152093.2000000002,152092.638,150094.238,150108.5,150110.876,152109.272,,136,
timeout,canvas.Screen,0_5_15_3,2022-07-15T14:10:12.831Z,,,,,,18,NaN,skipped,,,0.545,,,,,,,,,,,,,,,,,0.455,false,152094.7000000002,152092.638,,152094.40000000037,,152109.272,,,
ITI,canvas.Screen,0_5_15_4,2022-07-15T14:10:13.330Z,,,,,,18,499.5920000000042,timeout,,,0.545,,,,,,,,,,,,,,,,,0.455,false,152593.40000000037,152592.322,152092.638,152094.7000000002,152109.272,152608.864,,,
trial,flow.Sequence,0_5_15,2022-07-15T14:10:13.330Z,,,,,,18,3547.210999999981,completion,,,0.545,,,,,,,,,,,,,,,,,0.455,false,152594,152592.322,149028.516,149030.40000000037,149045.111,152608.864,,,
fixation,canvas.Screen,0_5_16_0,2022-07-15T14:10:13.829Z,,,,,,12,499.5909999999858,timeout,,,0.53,,,,,,,,,,,,,,,,,0.47,false,153092.7999999998,153091.757,152592.322,152594.2000000002,152608.864,153108.455,,,
stimulus,canvas.Screen,0_5_16_1,2022-07-15T14:10:14.351Z,,,,,,12,504.74500000019907,response,,0.53,0.53,,,https://raw.githubusercontent.com/carero2/loss-perception/main/png/0.53blue1yellowb%3D1w%3D100v%3D85.png,https://raw.githubusercontent.com/carero2/loss-perception/main/png/0.47blue1yellowb%3D1w%3D100v%3D85.png,,,,,,,,,true,j,keypress(j),0.47,0.47,false,153614.7999999998,153613.2000000002,153091.757,153099.2999999998,153108.455,153624.715,,,
choice,canvas.Screen,0_5_16_2,2022-07-15T14:10:16.343Z,,,,0.47,,12,1998.3129999999946,timeout,,,0.53,,0.53,,,6,,,,,,,42,,,,,0.47,false,155607,155606.42,153608.071,153620,153624.715,155623.028,,142,
timeout,canvas.Screen,0_5_16_3,2022-07-15T14:10:16.344Z,,,,,,12,NaN,skipped,,,0.53,,,,,,,,,,,,,,,,,0.47,false,155608,155606.42,,155607.7999999998,,155623.028,,,
ITI,canvas.Screen,0_5_16_4,2022-07-15T14:10:16.843Z,,,,,,12,499.7520000000077,timeout,,,0.53,,,,,,,,,,,,,,,,,0.47,false,156106.59999999963,156106.055,155606.42,155608,155623.028,156122.78,,,
trial,flow.Sequence,0_5_16,2022-07-15T14:10:16.843Z,,,,,,12,3497.1909999999916,completion,,,0.53,,,,,,,,,,,,,,,,,0.47,false,156106.7000000002,156106.055,152592.322,152594.09999999963,152608.864,156122.78,,,
fixation,canvas.Screen,0_5_17_0,2022-07-15T14:10:17.343Z,,,,,,6,499.50400000001537,timeout,,,0.545,,,,,,,,,,,,,,,,,0.515,true,156606.7000000002,156605.695,156106.055,156106.90000000037,156122.78,156622.284,,,
stimulus,canvas.Screen,0_5_17_1,2022-07-15T14:10:17.895Z,,,,,,6,534.6160000003583,response,,0.515,0.545,,,https://raw.githubusercontent.com/carero2/loss-perception/main/png/0.515blue1yellowb%3D1w%3D100v%3D39.png,https://raw.githubusercontent.com/carero2/loss-perception/main/png/0.545blue1yellowb%3D1w%3D100v%3D39.png,,,,,,,,,true,f,keypress(f),0.545,0.515,true,157158.09999999963,157156.90000000037,156605.695,156607.09999999963,156622.284,157171.783,,,
choice,canvas.Screen,0_5_17_2,2022-07-15T14:10:19.890Z,,,,0.515,,6,1998.3179999999993,timeout,,,0.545,,0.545,,,-3,,,,,,,39,,,,,0.515,true,159154,159153.546,157155.131,157160.90000000037,157171.783,159170.101,,139,
timeout,canvas.Screen,0_5_17_3,2022-07-15T14:10:19.891Z,,,,,,6,NaN,skipped,,,0.545,,,,,,,,,,,,,,,,,0.515,true,159154.59999999963,159153.546,,159154.5,,159170.101,,,
ITI,canvas.Screen,0_5_17_4,2022-07-15T14:10:20.391Z,,,,,,6,499.7609999999986,timeout,,,0.545,,,,,,,,,,,,,,,,,0.515,true,159654.40000000037,159653.219,159153.546,159154.7000000002,159170.101,159669.862,,,
trial,flow.Sequence,0_5_17,2022-07-15T14:10:20.391Z,,,,,,6,3530.439000000013,completion,,,0.545,,,,,,,,,,,,,,,,,0.515,true,159654.7999999998,159653.219,156106.055,156106.7999999998,156122.78,159669.862,,,
fixation,canvas.Screen,0_5_18_0,2022-07-15T14:10:20.890Z,,,,,,18,499.45000000001164,timeout,,,0.545,,,,,,,,,,,,,,,,,0.455,false,160153.2999999998,160152.723,159653.219,159655.09999999963,159669.862,160169.312,,,
stimulus,canvas.Screen,0_5_18_1,2022-07-15T14:10:21.398Z,,,,,,18,490.0880000003672,response,,0.545,0.545,,,https://raw.githubusercontent.com/carero2/loss-perception/main/png/0.545blue1yellowb%3D1w%3D100v%3D59.png,https://raw.githubusercontent.com/carero2/loss-perception/main/png/0.455blue1yellowb%3D1w%3D100v%3D59.png,,,,,,,,,true,j,keypress(j),0.455,0.455,false,160661.2999999998,160659.40000000037,160152.723,160153.5,160169.312,160669.078,,,
choice,canvas.Screen,0_5_18_2,2022-07-15T14:10:23.388Z,,,,0.455,,18,1998.2159999999858,timeout,,,0.545,,0.545,,,9,,,,,,,48,,,,,0.455,false,162651.90000000037,162650.807,160652.265,160662.59999999963,160669.078,162667.294,,148,
timeout,canvas.Screen,0_5_18_3,2022-07-15T14:10:23.392Z,,,,,,18,NaN,skipped,,,0.545,,,,,,,,,,,,,,,,,0.455,false,162655.2000000002,162650.807,,162654.90000000037,,162667.294,,,
ITI,canvas.Screen,0_5_18_4,2022-07-15T14:10:23.887Z,,,,,,18,499.5219999999972,timeout,,,0.545,,,,,,,,,,,,,,,,,0.455,false,163151,163150.293,162650.807,162655.40000000037,162667.294,163166.816,,,
trial,flow.Sequence,0_5_18,2022-07-15T14:10:23.888Z,,,,,,18,3480.4310000000114,completion,,,0.545,,,,,,,,,,,,,,,,,0.455,false,163151.2999999998,163150.293,159653.219,159655,159669.862,163166.816,,,
fixation,canvas.Screen,0_5_19_0,2022-07-15T14:10:24.387Z,,,,,,6,499.6460000000079,timeout,,,0.515,,,,,,,,,,,,,,,,,0.485,true,163650.2999999998,163649.777,163150.293,163151.2999999998,163166.816,163666.462,,,
stimulus,canvas.Screen,0_5_19_1,2022-07-15T14:10:25.176Z,,,,,,6,769.3379999998142,response,,0.485,0.515,,,https://raw.githubusercontent.com/carero2/loss-perception/main/png/0.485blue1yellowb%3D1w%3D100v%3D82.png,https://raw.githubusercontent.com/carero2/loss-perception/main/png/0.515blue1yellowb%3D1w%3D100v%3D82.png,,,,,,,,,true,f,keypress(f),0.515,0.485,true,164439.09999999963,164435.7999999998,163649.777,163650.40000000037,163666.462,164449.197,,,
choice,canvas.Screen,0_5_19_2,2022-07-15T14:10:27.168Z,,,,0.485,,6,1998.3160000000207,timeout,,,0.515,,0.515,,,3,,,,,,,51,,,,,0.485,true,166431.5,166430.927,164432.66,164440.2999999998,164449.197,166447.513,,151,
timeout,canvas.Screen,0_5_19_3,2022-07-15T14:10:27.169Z,,,,,,6,NaN,skipped,,,0.515,,,,,,,,,,,,,,,,,0.485,true,166432.59999999963,166430.927,,166432.40000000037,,166447.513,,,
ITI,canvas.Screen,0_5_19_4,2022-07-15T14:10:27.668Z,,,,,,6,499.72000000000116,timeout,,,0.515,,,,,,,,,,,,,,,,,0.485,true,166931.5,166930.449,166430.927,166432.7000000002,166447.513,166947.233,,,
trial,flow.Sequence,0_5_19,2022-07-15T14:10:27.668Z,,,,,,6,3763.6330000000016,completion,,,0.515,,,,,,,,,,,,,,,,,0.485,true,166931.90000000037,166930.449,163150.293,163151.2999999998,163166.816,166947.233,,,
fixation,canvas.Screen,0_5_20_0,2022-07-15T14:10:28.168Z,,,,,,6,499.4189999999944,timeout,,,0.545,,,,,,,,,,,,,,,,,0.515,true,167431.09999999963,167430.149,166930.449,166932.2000000002,166947.233,167446.652,,,
stimulus,canvas.Screen,0_5_20_1,2022-07-15T14:10:28.809Z,,,,,,6,623.7480000003707,response,,0.515,0.545,,,https://raw.githubusercontent.com/carero2/loss-perception/main/png/0.515blue1yellowb%3D1w%3D100v%3D62.png,https://raw.githubusercontent.com/carero2/loss-perception/main/png/0.545blue1yellowb%3D1w%3D100v%3D62.png,,,,,,,,,true,j,keypress(j),0.545,0.515,true,168072.59999999963,168070.40000000037,167430.149,167431.2999999998,167446.652,168079.561,,,
choice,canvas.Screen,0_5_20_2,2022-07-15T14:10:30.799Z,,,,0.545,,6,1998.3510000000242,timeout,,,0.545,,0.515,,,-9,,,,,,,42,,,,,0.515,true,170062.5,170061.324,168062.885,168077,168079.561,170077.912,,142,
timeout,canvas.Screen,0_5_20_3,2022-07-15T14:10:30.802Z,,,,,,6,NaN,skipped,,,0.545,,,,,,,,,,,,,,,,,0.515,true,170065.40000000037,170061.324,,170065.2000000002,,170077.912,,,
ITI,canvas.Screen,0_5_20_4,2022-07-15T14:10:31.298Z,,,,,,6,499.6719999999914,timeout,,,0.545,,,,,,,,,,,,,,,,,0.515,true,170562,170560.855,170061.324,170065.7000000002,170077.912,170577.584,,,
trial,flow.Sequence,0_5_20,2022-07-15T14:10:31.299Z,,,,,,6,3613.622000000003,completion,,,0.545,,,,,,,,,,,,,,,,,0.515,true,170562.2999999998,170560.855,166930.449,166932.09999999963,166947.233,170577.584,,,
fixation,canvas.Screen,0_5_21_0,2022-07-15T14:10:31.798Z,,,,,,6,499.45900000000256,timeout,,,0.485,,,,,,,,,,,,,,,,,0.455,true,171061.5,171060.516,170560.855,170562.59999999963,170577.584,171077.043,,,
stimulus,canvas.Screen,0_5_21_1,2022-07-15T14:10:32.579Z,,,,,,6,763.8570000003674,response,,0.455,0.485,,,https://raw.githubusercontent.com/carero2/loss-perception/main/png/0.455blue1yellowb%3D1w%3D100v%3D45.png,https://raw.githubusercontent.com/carero2/loss-perception/main/png/0.485blue1yellowb%3D1w%3D100v%3D45.png,,,,,,,,,true,f,keypress(f),0.485,0.455,true,171843,171840.90000000037,171060.516,171061.7000000002,171077.043,171859.723,,,
choice,canvas.Screen,0_5_21_2,2022-07-15T14:10:34.579Z,,,,0.455,,6,1998.3559999999998,timeout,,,0.485,,0.485,,,9,,,,,,,51,,,,,0.455,true,173842.7000000002,173841.538,171843.046,171845.40000000037,171859.723,173858.079,,151,
timeout,canvas.Screen,0_5_21_3,2022-07-15T14:10:34.582Z,,,,,,6,NaN,skipped,,,0.485,,,,,,,,,,,,,,,,,0.455,true,173845.09999999963,173841.538,,173844.90000000037,,173858.079,,,
ITI,canvas.Screen,0_5_21_4,2022-07-15T14:10:35.079Z,,,,,,6,499.6259999999893,timeout,,,0.485,,,,,,,,,,,,,,,,,0.455,true,174342.40000000037,174341.166,173841.538,173845.2999999998,173858.079,174357.705,,,
trial,flow.Sequence,0_5_21,2022-07-15T14:10:35.079Z,,,,,,6,3763.581999999995,completion,,,0.485,,,,,,,,,,,,,,,,,0.455,true,174342.90000000037,174341.166,170560.855,170562.5,170577.584,174357.705,,,
fixation,canvas.Screen,0_5_22_0,2022-07-15T14:10:35.578Z,,,,,,9,499.6510000000126,timeout,,,0.485,,,,,,,,,,,,,,,,,0.53,false,174841.7999999998,174840.679,174341.166,174343.09999999963,174357.705,174857.356,,,
stimulus,canvas.Screen,0_5_22_1,2022-07-15T14:10:36.113Z,,,,,,9,515.2439999996277,response,,0.485,0.485,,,https://raw.githubusercontent.com/carero2/loss-perception/main/png/0.485blue1yellowb%3D1w%3D100v%3D51.png,https://raw.githubusercontent.com/carero2/loss-perception/main/png/0.53blue1yellowb%3D1w%3D100v%3D51.png,,,,,,,,,true,f,keypress(f),0.53,0.53,false,175376.40000000037,175372.59999999963,174840.679,174842.2000000002,174857.356,175390.187,,,
choice,canvas.Screen,0_5_22_2,2022-07-15T14:10:38.110Z,,,,0.485,,9,1998.4689999999828,timeout,,,0.485,,0.53,,,3,,,,,,,54,,,,,0.53,false,177373.2000000002,177371.974,175373.604,175377.7999999998,175390.187,177388.656,,154,
timeout,canvas.Screen,0_5_22_3,2022-07-15T14:10:38.112Z,,,,,,9,NaN,skipped,,,0.485,,,,,,,,,,,,,,,,,0.53,false,177376.09999999963,177371.974,,177375.7999999998,,177388.656,,,
ITI,canvas.Screen,0_5_22_4,2022-07-15T14:10:38.609Z,,,,,,9,499.5130000000063,timeout,,,0.485,,,,,,,,,,,,,,,,,0.53,false,177872.5,177871.514,177371.974,177376.2999999998,177388.656,177888.169,,,
trial,flow.Sequence,0_5_22,2022-07-15T14:10:38.609Z,,,,,,9,3513.8090000000084,completion,,,0.485,,,,,,,,,,,,,,,,,0.53,false,177872.90000000037,177871.514,174341.166,174343.09999999963,174357.705,177888.169,,,
fixation,canvas.Screen,0_5_23_0,2022-07-15T14:10:39.108Z,,,,,,12,499.56700000001,timeout,,,0.53,,,,,,,,,,,,,,,,,0.47,true,178371.59999999963,178371.112,177871.514,177873.2000000002,177888.169,178387.736,,,
stimulus,canvas.Screen,0_5_23_1,2022-07-15T14:10:39.693Z,,,,,,12,567.6640000003681,response,,0.47,0.53,,,https://raw.githubusercontent.com/carero2/loss-perception/main/png/0.47blue1yellowb%3D1w%3D100v%3D32.png,https://raw.githubusercontent.com/carero2/loss-perception/main/png/0.53blue1yellowb%3D1w%3D100v%3D32.png,,,,,,,,,true,f,keypress(f),0.53,0.47,true,178957,178955.40000000037,178371.112,178371.7000000002,178387.736,178970.562,,,
choice,canvas.Screen,0_5_23_2,2022-07-15T14:10:41.690Z,,,,0.47,,12,1998.4199999999837,timeout,,,0.53,,0.53,,,6,,,,,,,60,,,,,0.47,true,180953.2000000002,180952.4,178953.958,178961.2000000002,178970.562,180968.982,,160,
timeout,canvas.Screen,0_5_23_3,2022-07-15T14:10:41.691Z,,,,,,12,NaN,skipped,,,0.53,,,,,,,,,,,,,,,,,0.47,true,180954.59999999963,180952.4,,180954.5,,180968.982,,,
ITI,canvas.Screen,0_5_23_4,2022-07-15T14:10:42.189Z,,,,,,12,499.5370000000112,timeout,,,0.53,,,,,,,,,,,,,,,,,0.47,true,181452.90000000037,181451.994,180952.4,180954.7000000002,180968.982,181468.519,,,
trial,flow.Sequence,0_5_23,2022-07-15T14:10:42.190Z,,,,,,12,3563.8250000000116,completion,,,0.53,,,,,,,,,,,,,,,,,0.47,true,181453.40000000037,181451.994,177871.514,177873.09999999963,177888.169,181468.519,,,
pratice,flow.Loop,0_5,2022-07-15T14:10:42.190Z,,,,,,,93040.443,completion,,,,,,,,,,,,,,,,,,,,,,181453.7000000002,181451.994,88394.831,88403.59999999963,88411.551,181468.519,,,
show amount,html.Screen,0_6,2022-07-15T14:10:49.606Z,,,,,,,7397.981,response,,,,,,,,,,,,,,,,,Continue,click #Continue,,,,188869.90000000037,188866.5,181451.994,181455.40000000037,181468.519,188879.074,,,
first block,canvas.Screen,0_7,2022-07-15T14:10:54.835Z,,,,,,,5218.626000000193,response,,,,,,,,,,,,,,,,,space,keypress(Space),,,,194099,194097.7000000002,188862.511,188870,188879.074,194108.164,,,
fixation,canvas.Screen,0_8_0_0,2022-07-15T14:10:55.329Z,,,,,,4,749.335000000021,timeout,,,0.51,,,,,,,,,,,,,,,,,0.49,false,194593,194592.584,194091.247,194099.2999999998,194108.164,194857.499,,,
stimulus,canvas.Screen,0_8_0_1,2022-07-15T14:10:56.335Z,,,,,,4,740.800999999803,response,,0.51,0.51,,,https://raw.githubusercontent.com/carero2/loss-perception/main/png/0.51blue1yellowb%3D1w%3D100v%3D55.png,https://raw.githubusercontent.com/carero2/loss-perception/main/png/0.49blue1yellowb%3D1w%3D100v%3D55.png,,,,,,,,,true,f,keypress(f),0.49,0.49,false,195599.2999999998,195598.2999999998,194592.584,194863.7000000002,194857.499,195623.588,,,
choice,canvas.Screen,0_8_0_2,2022-07-15T14:10:57.343Z,,,,0.51,,4,999.2210000000196,timeout,,,0.51,,0.49,,,-2,-2,,,,,,,,,,,0.49,false,196606.7999999998,196606.087,195606.913,195613,195623.588,196622.809,98,,
ITI,canvas.Screen,0_8_0_3,2022-07-15T14:10:57.844Z,,,2716,,,4,499.487999999983,timeout,,,0.51,,,,,,,,,,,,,,,,,0.49,false,197107.7000000002,197105.65,196606.087,196607,196622.809,197122.297,,,
trial,flow.Sequence,0_8_0,2022-07-15T14:10:57.844Z,,,,,,4,2997.4860000000044,completion,,,0.51,,,,,,,,,,,,,,,,,0.49,false,197107.7999999998,197105.65,194091.247,194099.2000000002,194108.164,197122.297,,,
fixation,canvas.Screen,0_8_1_0,2022-07-15T14:10:58.342Z,,,,,,2,749.4910000000091,timeout,,,0.515,,,,,,,,,,,,,,,,,0.505,false,197606.2999999998,197605.381,197105.65,197107.90000000037,197122.297,197871.788,,,
stimulus,canvas.Screen,0_8_1_1,2022-07-15T14:10:59.275Z,,,,,,2,662.7119999999995,response,,0.515,0.515,,,https://raw.githubusercontent.com/carero2/loss-perception/main/png/0.515blue1yellowb%3D1w%3D100v%3D45.png,https://raw.githubusercontent.com/carero2/loss-perception/main/png/0.505blue1yellowb%3D1w%3D100v%3D45.png,,,,,,,,,true,f,keypress(f),0.505,0.505,false,198538.7999999998,198534.5,197605.381,197877.09999999963,197871.788,198554.483,,,
choice,canvas.Screen,0_8_1_2,2022-07-15T14:11:00.275Z,,,,0.515,,2,999.2569999999832,timeout,,,0.515,,0.505,,,-3,-5,,,,,,,,,,,0.505,false,199538.40000000037,199537.09,198537.886,198549.59999999963,198554.483,199553.74,95,,
ITI,canvas.Screen,0_8_1_3,2022-07-15T14:11:00.774Z,,,2525,,,2,499.92800000001444,timeout,,,0.515,,,,,,,,,,,,,,,,,0.505,false,200037.90000000037,200036.675,199537.09,199538.7999999998,199553.74,200053.668,,,
trial,flow.Sequence,0_8_1,2022-07-15T14:11:00.775Z,,,,,,2,2914.377999999997,completion,,,0.515,,,,,,,,,,,,,,,,,0.505,false,200038.59999999963,200036.675,197105.65,197107.90000000037,197122.297,200053.668,,,
fixation,canvas.Screen,0_8_2_0,2022-07-15T14:11:01.274Z,,,,,,4,749.1410000000033,timeout,,,0.53,,,,,,,,,,,,,,,,,0.51,true,200537.59999999963,200536.341,200036.675,200038.90000000037,200053.668,200802.809,,,
stimulus,canvas.Screen,0_8_2_1,2022-07-15T14:11:03.050Z,,,,,,4,1507.290999999619,response,,0.51,0.53,,,https://raw.githubusercontent.com/carero2/loss-perception/main/png/0.51blue1yellowb%3D1w%3D100v%3D52.png,https://raw.githubusercontent.com/carero2/loss-perception/main/png/0.53blue1yellowb%3D1w%3D100v%3D52.png,,,,,,,,,true,f,keypress(f),0.53,0.51,true,202313.40000000037,202310.09999999963,200536.341,200808.2999999998,200802.809,202334.768,,,
choice,canvas.Screen,0_8_2_2,2022-07-15T14:11:04.055Z,,,,0.51,,4,999.1979999999749,timeout,,,0.53,,0.53,,,-2,-7,,,,,,,,,,,0.51,true,203318.5,203317.31,202318.112,202324,202334.768,203333.966,93,,
ITI,canvas.Screen,0_8_2_3,2022-07-15T14:11:04.554Z,,,2453,,,4,499.4750000000058,timeout,,,0.53,,,,,,,,,,,,,,,,,0.51,true,203818.09999999963,203816.982,203317.31,203318.90000000037,203333.966,203833.441,,,
trial,flow.Sequence,0_8_2,2022-07-15T14:11:04.555Z,,,,,,4,3763.313999999984,completion,,,0.53,,,,,,,,,,,,,,,,,0.51,true,203818.7000000002,203816.982,200036.675,200038.7999999998,200053.668,203833.441,,,
fixation,canvas.Screen,0_8_3_0,2022-07-15T14:11:05.053Z,,,,,,6,799.4610000000102,timeout,,,0.545,,,,,,,,,,,,,,,,,0.515,true,204317.09999999963,204316.563,203816.982,203819,203833.441,204632.902,,,
stimulus,canvas.Screen,0_8_3_1,2022-07-15T14:11:06.147Z,,,,,,6,775.7980000001844,response,,0.515,0.545,,,https://raw.githubusercontent.com/carero2/loss-perception/main/png/0.515blue1yellowb%3D1w%3D100v%3D38.png,https://raw.githubusercontent.com/carero2/loss-perception/main/png/0.545blue1yellowb%3D1w%3D100v%3D38.png,,,,,,,,,true,j,keypress(j),0.545,0.515,true,205410.40000000037,205408.7000000002,204316.563,204638.7000000002,204632.902,205432.136,,,
choice,canvas.Screen,0_8_3_2,2022-07-15T14:11:07.152Z,,,,0.545,,6,999.2289999999921,timeout,,,0.545,,0.515,,,-9,-16,,,,,,,,,,,0.515,true,206415.40000000037,206414.829,205415.571,205420.09999999963,205432.136,206431.365,84,,
ITI,canvas.Screen,0_8_3_3,2022-07-15T14:11:07.652Z,,,2579,,,6,499.58300000001327,timeout,,,0.545,,,,,,,,,,,,,,,,,0.515,true,206915.40000000037,206914.399,206414.829,206415.59999999963,206431.365,206930.948,,,
trial,flow.Sequence,0_8_3,2022-07-15T14:11:07.652Z,,,,,,6,3080.9580000000133,completion,,,0.545,,,,,,,,,,,,,,,,,0.515,true,206916.09999999963,206914.399,203816.982,203818.90000000037,203833.441,206930.948,,,
fixation,canvas.Screen,0_8_4_0,2022-07-15T14:11:08.151Z,,,,,,6,832.8040000000037,timeout,,,0.515,,,,,,,,,,,,,,,,,0.485,true,207415.09999999963,207413.98,206914.399,206916.2999999998,206930.948,207763.752,,,
stimulus,canvas.Screen,0_8_4_1,2022-07-15T14:11:09.449Z,,,,,,6,945.547999999806,response,,0.485,0.515,,,https://raw.githubusercontent.com/carero2/loss-perception/main/png/0.485blue1yellowb%3D1w%3D100v%3D56.png,https://raw.githubusercontent.com/carero2/loss-perception/main/png/0.515blue1yellowb%3D1w%3D100v%3D56.png,,,,,,,,,true,j,keypress(j),0.515,0.485,true,208712.5,208709.2999999998,207413.98,207769.7999999998,207763.752,208729.45,,,
choice,canvas.Screen,0_8_4_2,2022-07-15T14:11:10.449Z,,,,0.515,,6,999.2669999999925,timeout,,,0.515,,0.485,,,-3,-19,,,,,,,,,,,0.485,true,209713.2999999998,209712.142,208712.778,208722.7000000002,208729.45,209728.717,81,,
ITI,canvas.Screen,0_8_4_3,2022-07-15T14:11:10.948Z,,,2353,,,6,499.53800000000047,timeout,,,0.515,,,,,,,,,,,,,,,,,0.485,true,210212.09999999963,210211.585,209712.142,209713.7000000002,209728.717,210228.255,,,
trial,flow.Sequence,0_8_4,2022-07-15T14:11:10.948Z,,,,,,6,3280.636999999988,completion,,,0.515,,,,,,,,,,,,,,,,,0.485,true,210212.2999999998,210211.585,206914.399,206916.2000000002,206930.948,210228.255,,,
fixation,canvas.Screen,0_8_5_0,2022-07-15T14:11:11.449Z,,,,,,4,766.0939999999828,timeout,,,0.49,,,,,,,,,,,,,,,,,0.47,true,210712.40000000037,210711.266,210211.585,210212.5,210228.255,210994.349,,,
stimulus,canvas.Screen,0_8_5_1,2022-07-15T14:11:12.620Z,,,,,,4,886.1510000000126,response,,0.47,0.49,,,https://raw.githubusercontent.com/carero2/loss-perception/main/png/0.47blue1yellowb%3D1w%3D100v%3D67.png,https://raw.githubusercontent.com/carero2/loss-perception/main/png/0.49blue1yellowb%3D1w%3D100v%3D67.png,,,,,,,,,true,j,keypress(j),0.49,0.47,true,211883.40000000037,211880.5,210711.266,211000,210994.349,211926.85,,,
choice,canvas.Screen,0_8_5_2,2022-07-15T14:11:13.647Z,,,,0.49,,4,999.320000000007,timeout,,,0.49,,0.47,,,2,-17,,,,,,,,,,,0.47,true,212910.59999999963,212909.449,211910.239,211910.7999999998,211926.85,212926.17,83,,
ITI,canvas.Screen,0_8_5_3,2022-07-15T14:11:14.146Z,,,2411,,,4,499.42799999998533,timeout,,,0.49,,,,,,,,,,,,,,,,,0.47,true,213410.2000000002,213409.077,212909.449,212911,212926.17,213425.598,,,
trial,flow.Sequence,0_8_5,2022-07-15T14:11:14.147Z,,,,,,4,3180.8219999999856,completion,,,0.49,,,,,,,,,,,,,,,,,0.47,true,213410.90000000037,213409.077,210211.585,210212.40000000037,210228.255,213425.598,,,
fixation,canvas.Screen,0_8_6_0,2022-07-15T14:11:14.646Z,,,,,,6,782.8250000000116,timeout,,,0.485,,,,,,,,,,,,,,,,,0.455,true,213909.90000000037,213908.693,213409.077,213411.2000000002,213425.598,214208.423,,,
stimulus,canvas.Screen,0_8_6_1,2022-07-15T14:11:17.067Z,,,,,,6,2118.2770000001765,response,,0.455,0.485,,,https://raw.githubusercontent.com/carero2/loss-perception/main/png/0.455blue1yellowb%3D1w%3D100v%3D87.png,https://raw.githubusercontent.com/carero2/loss-perception/main/png/0.485blue1yellowb%3D1w%3D100v%3D87.png,,,,,,,,,true,j,keypress(j),0.485,0.455,true,216330.40000000037,216326.7000000002,213908.693,214215.2000000002,214208.423,216356.761,,,
choice,canvas.Screen,0_8_6_2,2022-07-15T14:11:18.076Z,,,,0.485,,6,999.0009999999893,timeout,,,0.485,,0.455,,,3,-14,,,,,,,,,,,0.455,true,217340.2999999998,217339.198,216339.895,216343.2999999998,216356.761,217355.762,86,,
ITI,canvas.Screen,0_8_6_3,2022-07-15T14:11:18.575Z,,,2970,,,6,499.60800000000745,timeout,,,0.485,,,,,,,,,,,,,,,,,0.455,true,217839.2999999998,217838.756,217339.198,217340.7000000002,217355.762,217855.37,,,
trial,flow.Sequence,0_8_6,2022-07-15T14:11:18.576Z,,,,,,6,4413.157999999996,completion,,,0.485,,,,,,,,,,,,,,,,,0.455,true,217839.5,217838.756,213409.077,213411.09999999963,213425.598,217855.37,,,
fixation,canvas.Screen,0_8_7_0,2022-07-15T14:11:19.076Z,,,,,,2,782.7170000000042,timeout,,,0.505,,,,,,,,,,,,,,,,,0.495,false,218339.5,218338.339,217838.756,217839.7000000002,217855.37,218638.087,,,
stimulus,canvas.Screen,0_8_7_1,2022-07-15T14:11:20.814Z,,,,,,2,1436.9130000000005,response,,0.505,0.505,,,https://raw.githubusercontent.com/carero2/loss-perception/main/png/0.505blue1yellowb%3D1w%3D100v%3D36.png,https://raw.githubusercontent.com/carero2/loss-perception/main/png/0.495blue1yellowb%3D1w%3D100v%3D36.png,,,,,,,,,true,f,keypress(f),0.495,0.495,false,220078.09999999963,220075,218338.339,218645.5,218638.087,220103.502,,,
choice,canvas.Screen,0_8_7_2,2022-07-15T14:11:21.825Z,,,,0.505,,2,999.1319999999832,timeout,,,0.505,,0.495,,,-1,-15,,,,,,,,,,,0.495,false,221089.09999999963,221086.842,220086.748,220092.40000000037,220103.502,221102.634,85,,
ITI,canvas.Screen,0_8_7_3,2022-07-15T14:11:22.323Z,,,2440,,,2,499.72100000001956,timeout,,,0.505,,,,,,,,,,,,,,,,,0.495,false,221586.7999999998,221585.687,221086.842,221089.90000000037,221102.634,221602.355,,,
trial,flow.Sequence,0_8_7,2022-07-15T14:11:22.324Z,,,,,,2,3730.31700000001,completion,,,0.505,,,,,,,,,,,,,,,,,0.495,false,221587.5,221585.687,217838.756,217839.59999999963,217855.37,221602.355,,,
fixation,canvas.Screen,0_8_8_0,2022-07-15T14:11:22.825Z,,,,,,2,749.3159999999916,timeout,,,0.495,,,,,,,,,,,,,,,,,0.485,true,222088.40000000037,222086.386,221585.687,221587.90000000037,221602.355,222351.671,,,
stimulus,canvas.Screen,0_8_8_1,2022-07-15T14:11:24.129Z,,,,,,2,1037.2290000003704,response,,0.485,0.495,,,https://raw.githubusercontent.com/carero2/loss-perception/main/png/0.485blue1yellowb%3D1w%3D100v%3D10.png,https://raw.githubusercontent.com/carero2/loss-perception/main/png/0.495blue1yellowb%3D1w%3D100v%3D10.png,,,,,,,,,true,j,keypress(j),0.495,0.485,true,223392.5,223388.90000000037,222086.386,222356.59999999963,222351.671,223417.412,,,
choice,canvas.Screen,0_8_8_2,2022-07-15T14:11:25.137Z,,,,0.495,,2,999.1739999999991,timeout,,,0.495,,0.485,,,1,-14,,,,,,,,,,,0.485,true,224401.2000000002,224400.085,223400.81,223403,223417.412,224416.586,86,,
ITI,canvas.Screen,0_8_8_3,2022-07-15T14:11:25.637Z,,,2014,,,2,499.5929999999935,timeout,,,0.495,,,,,,,,,,,,,,,,,0.485,true,224900.90000000037,224899.679,224400.085,224401.59999999963,224416.586,224916.179,,,
trial,flow.Sequence,0_8_8,2022-07-15T14:11:25.638Z,,,,,,2,3297.3239999999932,completion,,,0.495,,,,,,,,,,,,,,,,,0.485,true,224901.7000000002,224899.679,221585.687,221587.7000000002,221602.355,224916.179,,,
fixation,canvas.Screen,0_8_9_0,2022-07-15T14:11:26.137Z,,,,,,6,732.8040000000037,timeout,,,0.515,,,,,,,,,,,,,,,,,0.485,false,225400.5,225399.364,224899.679,224902,224916.179,225648.983,,,
stimulus,canvas.Screen,0_8_9_1,2022-07-15T14:11:26.948Z,,,,,,6,560.9170000003651,response,,0.515,0.515,,,https://raw.githubusercontent.com/carero2/loss-perception/main/png/0.515blue1yellowb%3D1w%3D100v%3D51.png,https://raw.githubusercontent.com/carero2/loss-perception/main/png/0.485blue1yellowb%3D1w%3D100v%3D51.png,,,,,,,,,true,f,keypress(f),0.485,0.485,false,226211.7000000002,226209.90000000037,225399.364,225654.7000000002,225648.983,226231.768,,,
choice,canvas.Screen,0_8_9_2,2022-07-15T14:11:27.952Z,,,,0.515,,6,999.2209999999905,timeout,,,0.515,,0.485,,,-3,-17,,,,,,,,,,,0.485,false,227215.59999999963,227214.359,226215.191,226221.5,226231.768,227230.989,83,,
ITI,canvas.Screen,0_8_9_3,2022-07-15T14:11:28.451Z,,,2190,,,6,499.7259999999951,timeout,,,0.515,,,,,,,,,,,,,,,,,0.485,false,227714.5,227713.934,227214.359,227216,227230.989,227730.715,,,
trial,flow.Sequence,0_8_9,2022-07-15T14:11:28.451Z,,,,,,6,2797.7550000000047,completion,,,0.515,,,,,,,,,,,,,,,,,0.485,false,227714.7000000002,227713.934,224899.679,224901.90000000037,224916.179,227730.715,,,
fixation,canvas.Screen,0_8_10_0,2022-07-15T14:11:28.951Z,,,,,,2,765.8960000000079,timeout,,,0.515,,,,,,,,,,,,,,,,,0.505,false,228214.59999999963,228213.52,227713.934,227714.7000000002,227730.715,228496.611,,,
stimulus,canvas.Screen,0_8_10_1,2022-07-15T14:11:29.792Z,,,,,,2,558.0890000001818,response,,0.515,0.515,,,https://raw.githubusercontent.com/carero2/loss-perception/main/png/0.515blue1yellowb%3D1w%3D100v%3D52.png,https://raw.githubusercontent.com/carero2/loss-perception/main/png/0.505blue1yellowb%3D1w%3D100v%3D52.png,,,,,,,,,true,f,keypress(f),0.505,0.505,false,229055.90000000037,229054.7000000002,228213.52,228501.90000000037,228496.611,229079.616,,,
choice,canvas.Screen,0_8_10_2,2022-07-15T14:11:30.799Z,,,,0.515,,2,999.1269999999786,timeout,,,0.515,,0.505,,,-3,-20,,,,,,,,,,,0.505,false,230063.2999999998,230062.086,229062.986,229067.40000000037,229079.616,230078.743,80,,
ITI,canvas.Screen,0_8_10_3,2022-07-15T14:11:31.299Z,,,2229,,,2,499.497000000003,timeout,,,0.515,,,,,,,,,,,,,,,,,0.505,false,230562.5,230561.669,230062.086,230063.7999999998,230078.743,230578.24,,,
trial,flow.Sequence,0_8_10,2022-07-15T14:11:31.299Z,,,,,,2,2830.953999999998,completion,,,0.515,,,,,,,,,,,,,,,,,0.505,false,230562.90000000037,230561.669,227713.934,227714.7000000002,227730.715,230578.24,,,
fixation,canvas.Screen,0_8_11_0,2022-07-15T14:11:31.799Z,,,,,,2,799.3220000000147,timeout,,,0.495,,,,,,,,,,,,,,,,,0.485,false,231062.5,231061.327,230561.669,230563.09999999963,230578.24,231377.562,,,
stimulus,canvas.Screen,0_8_11_1,2022-07-15T14:11:33.161Z,,,,,,2,1045.638000000181,response,,0.495,0.495,,,https://raw.githubusercontent.com/carero2/loss-perception/main/png/0.495blue1yellowb%3D1w%3D100v%3D8.png,https://raw.githubusercontent.com/carero2/loss-perception/main/png/0.485blue1yellowb%3D1w%3D100v%3D8.png,,,,,,,,,true,j,keypress(j),0.485,0.485,false,232425,232423.2000000002,231061.327,231382.90000000037,231377.562,232460.008,,,
choice,canvas.Screen,0_8_11_2,2022-07-15T14:11:34.179Z,,,,0.485,,2,999.1909999999916,timeout,,,0.495,,0.495,,,3,-17,,,,,,,,,,,0.485,false,233443.2999999998,233442.611,232443.368,232446.7999999998,232460.008,233459.199,83,,
ITI,canvas.Screen,0_8_11_3,2022-07-15T14:11:34.680Z,,,2881,,,2,499.56200000000536,timeout,,,0.495,,,,,,,,,,,,,,,,,0.485,false,233943.40000000037,233942.266,233442.611,233443.40000000037,233459.199,233958.761,,,
trial,flow.Sequence,0_8_11,2022-07-15T14:11:34.680Z,,,,,,2,3364.0260000000126,completion,,,0.495,,,,,,,,,,,,,,,,,0.485,false,233944.09999999963,233942.266,230561.669,230563.09999999963,230578.24,233958.761,,,
fixation,canvas.Screen,0_8_12_0,2022-07-15T14:11:35.179Z,,,,,,4,766.130999999994,timeout,,,0.53,,,,,,,,,,,,,,,,,0.51,true,234442.90000000037,234442.146,233942.266,233944.5,233958.761,234724.892,,,
stimulus,canvas.Screen,0_8_12_1,2022-07-15T14:11:36.140Z,,,,,,4,677.7079999996349,response,,0.51,0.53,,,https://raw.githubusercontent.com/carero2/loss-perception/main/png/0.51blue1yellowb%3D1w%3D100v%3D16.png,https://raw.githubusercontent.com/carero2/loss-perception/main/png/0.53blue1yellowb%3D1w%3D100v%3D16.png,,,,,,,,,true,j,keypress(j),0.53,0.51,true,235403.7000000002,235402.59999999963,234442.146,234730.5,234724.892,235424.224,,,
choice,canvas.Screen,0_8_12_2,2022-07-15T14:11:37.144Z,,,,0.53,,4,999.204000000027,timeout,,,0.53,,0.51,,,-6,-23,,,,,,,,,,,0.51,true,236408.09999999963,236406.896,235407.648,235414.2999999998,235424.224,236423.428,77,,
ITI,canvas.Screen,0_8_12_3,2022-07-15T14:11:37.644Z,,,2652,,,4,499.58699999999953,timeout,,,0.53,,,,,,,,,,,,,,,,,0.51,true,236907.7000000002,236906.541,236406.896,236408.5,236423.428,236923.015,,,
trial,flow.Sequence,0_8_12,2022-07-15T14:11:37.645Z,,,,,,4,2947.779999999999,completion,,,0.53,,,,,,,,,,,,,,,,,0.51,true,236908.40000000037,236906.541,233942.266,233944.40000000037,233958.761,236923.015,,,
fixation,canvas.Screen,0_8_13_0,2022-07-15T14:11:38.143Z,,,,,,4,766.109999999986,timeout,,,0.49,,,,,,,,,,,,,,,,,0.47,false,237406.59999999963,237406.069,236906.541,236908.7000000002,236923.015,237689.125,,,
stimulus,canvas.Screen,0_8_13_1,2022-07-15T14:11:40.047Z,,,,,,4,1620.1749999998137,response,,0.49,0.49,,,https://raw.githubusercontent.com/carero2/loss-perception/main/png/0.49blue1yellowb%3D1w%3D100v%3D74.png,https://raw.githubusercontent.com/carero2/loss-perception/main/png/0.47blue1yellowb%3D1w%3D100v%3D74.png,,,,,,,,,true,j,keypress(j),0.47,0.47,false,239310.59999999963,239309.2999999998,237406.069,237694.09999999963,237689.125,239341.051,,,
choice,canvas.Screen,0_8_13_2,2022-07-15T14:11:41.058Z,,,,0.47,,4,995.9579999999842,timeout,,,0.49,,0.49,,,6,-17,,,,,,,,,,,0.47,false,240321.5,240320.299,239304.383,239320.7000000002,239341.051,240337.009,83,,
ITI,canvas.Screen,0_8_13_3,2022-07-15T14:11:41.557Z,,,2315,,,4,499.4429999999993,timeout,,,0.49,,,,,,,,,,,,,,,,,0.47,false,240821.2000000002,240819.991,240320.299,240321.90000000037,240337.009,240836.452,,,
trial,flow.Sequence,0_8_13,2022-07-15T14:11:41.558Z,,,,,,4,3896.975999999995,completion,,,0.49,,,,,,,,,,,,,,,,,0.47,false,240822,240819.991,236906.541,236908.59999999963,236923.015,240836.452,,,
fixation,canvas.Screen,0_8_14_0,2022-07-15T14:11:42.057Z,,,,,,6,832.6330000000016,timeout,,,0.485,,,,,,,,,,,,,,,,,0.455,true,241320.7000000002,241319.555,240819.991,240822.2000000002,240836.452,241669.085,,,
stimulus,canvas.Screen,0_8_14_1,2022-07-15T14:11:43.180Z,,,,,,6,774.2149999998219,response,,0.455,0.485,,,https://raw.githubusercontent.com/carero2/loss-perception/main/png/0.455blue1yellowb%3D1w%3D100v%3D79.png,https://raw.githubusercontent.com/carero2/loss-perception/main/png/0.485blue1yellowb%3D1w%3D100v%3D79.png,,,,,,,,,true,j,keypress(j),0.485,0.455,true,242444.2999999998,242443.2999999998,241319.555,241679.40000000037,241669.085,242468.674,,,
choice,canvas.Screen,0_8_14_2,2022-07-15T14:11:44.189Z,,,,0.485,,6,998.9869999999937,timeout,,,0.485,,0.455,,,3,-14,,,,,,,,,,,0.455,true,243452.40000000037,243451.143,242451.843,242454.2000000002,242468.674,243467.661,86,,
ITI,canvas.Screen,0_8_14_3,2022-07-15T14:11:44.688Z,,,2332,,,6,499.55300000001444,timeout,,,0.485,,,,,,,,,,,,,,,,,0.455,true,243952,243950.679,243451.143,243452.7999999998,243467.661,243967.214,,,
trial,flow.Sequence,0_8_14,2022-07-15T14:11:44.689Z,,,,,,6,3114.2270000000135,completion,,,0.485,,,,,,,,,,,,,,,,,0.455,true,243952.7000000002,243950.679,240819.991,240822.2000000002,240836.452,243967.214,,,
fixation,canvas.Screen,0_8_15_0,2022-07-15T14:11:45.188Z,,,,,,2,832.6909999999916,timeout,,,0.505,,,,,,,,,,,,,,,,,0.495,false,244451.7000000002,244450.27,243950.679,243953,243967.214,244799.905,,,
stimulus,canvas.Screen,0_8_15_1,2022-07-15T14:11:45.979Z,,,,,,2,441.4950000003737,response,,0.505,0.505,,,https://raw.githubusercontent.com/carero2/loss-perception/main/png/0.505blue1yellowb%3D1w%3D100v%3D39.png,https://raw.githubusercontent.com/carero2/loss-perception/main/png/0.495blue1yellowb%3D1w%3D100v%3D39.png,,,,,,,,,true,f,keypress(f),0.495,0.495,false,245242.59999999963,245241.40000000037,244450.27,244806,244799.905,245266.166,,,
choice,canvas.Screen,0_8_15_2,2022-07-15T14:11:46.985Z,,,,0.505,,2,999.2509999999893,timeout,,,0.505,,0.495,,,-1,-15,,,,,,,,,,,0.495,false,246249.2000000002,246248.685,245249.575,245262.7999999998,245266.166,246265.417,85,,
ITI,canvas.Screen,0_8_15_3,2022-07-15T14:11:47.486Z,,,2275,,,2,499.63000000000466,timeout,,,0.505,,,,,,,,,,,,,,,,,0.495,false,246749.5,246748.434,246248.685,246249.40000000037,246265.417,246765.047,,,
trial,flow.Sequence,0_8_15,2022-07-15T14:11:47.486Z,,,,,,2,2781.220000000001,completion,,,0.505,,,,,,,,,,,,,,,,,0.495,false,246750.2000000002,246748.434,243950.679,243952.90000000037,243967.214,246765.047,,,
fixation,canvas.Screen,0_8_16_0,2022-07-15T14:11:47.985Z,,,,,,6,765.994000000006,timeout,,,0.545,,,,,,,,,,,,,,,,,0.515,false,247249.09999999963,247247.984,246748.434,246750.5,246765.047,247531.041,,,
stimulus,canvas.Screen,0_8_16_1,2022-07-15T14:11:48.820Z,,,,,,6,549.55899999963,response,,0.545,0.545,,,https://raw.githubusercontent.com/carero2/loss-perception/main/png/0.545blue1yellowb%3D1w%3D100v%3D72.png,https://raw.githubusercontent.com/carero2/loss-perception/main/png/0.515blue1yellowb%3D1w%3D100v%3D72.png,,,,,,,,,true,f,keypress(f),0.515,0.515,false,248083.5,248080.59999999963,247247.984,247536.40000000037,247531.041,248130.648,,,
choice,canvas.Screen,0_8_16_2,2022-07-15T14:11:49.850Z,,,,0.545,,6,999.0260000000126,timeout,,,0.545,,0.515,,,-9,-24,,,,,,,,,,,0.515,false,249113.59999999963,249112.978,248113.807,248097,248130.648,249129.674,76,,
ITI,canvas.Screen,0_8_16_3,2022-07-15T14:11:50.350Z,,,2953,,,6,499.5709999999963,timeout,,,0.545,,,,,,,,,,,,,,,,,0.515,false,249614,249612.845,249112.978,249113.7000000002,249129.674,249629.245,,,
trial,flow.Sequence,0_8_16,2022-07-15T14:11:50.351Z,,,,,,6,2847.79800000001,completion,,,0.545,,,,,,,,,,,,,,,,,0.515,false,249614.59999999963,249612.845,246748.434,246750.40000000037,246765.047,249629.245,,,
fixation,canvas.Screen,0_8_17_0,2022-07-15T14:11:50.849Z,,,,,,4,982.5329999999958,timeout,,,0.51,,,,,,,,,,,,,,,,,0.49,false,250112.7999999998,250112.188,249612.845,249615,249629.245,250611.778,,,
stimulus,canvas.Screen,0_8_17_1,2022-07-15T14:11:52.039Z,,,,,,4,689.7220000000088,response,,0.51,0.51,,,https://raw.githubusercontent.com/carero2/loss-perception/main/png/0.51blue1yellowb%3D1w%3D100v%3D20.png,https://raw.githubusercontent.com/carero2/loss-perception/main/png/0.49blue1yellowb%3D1w%3D100v%3D20.png,,,,,,,,,true,f,keypress(f),0.49,0.49,false,251302.7000000002,251301.5,250112.188,250620.2999999998,250611.778,251327.863,,,
choice,canvas.Screen,0_8_17_2,2022-07-15T14:11:53.048Z,,,,0.51,,4,999.3139999999839,timeout,,,0.51,,0.49,,,-2,-26,,,,,,,,,,,0.49,false,252311.59999999963,252310.512,251311.906,251312.7000000002,251327.863,252327.177,74,,
ITI,canvas.Screen,0_8_17_3,2022-07-15T14:11:53.547Z,,,2672,,,4,499.5340000000142,timeout,,,0.51,,,,,,,,,,,,,,,,,0.49,false,252810.59999999963,252810.072,252310.512,252312,252327.177,252826.711,,,
trial,flow.Sequence,0_8_17,2022-07-15T14:11:53.547Z,,,,,,4,3180.82699999999,completion,,,0.51,,,,,,,,,,,,,,,,,0.49,false,252810.7999999998,252810.072,249612.845,249614.7999999998,249629.245,252826.711,,,
fixation,canvas.Screen,0_8_18_0,2022-07-15T14:11:54.047Z,,,,,,6,732.7419999999984,timeout,,,0.545,,,,,,,,,,,,,,,,,0.515,false,253310.90000000037,253309.77,252810.072,252810.90000000037,252826.711,253559.453,,,
stimulus,canvas.Screen,0_8_18_1,2022-07-15T14:11:54.962Z,,,,,,6,664.0469999999914,response,,0.545,0.545,,,https://raw.githubusercontent.com/carero2/loss-perception/main/png/0.545blue1yellowb%3D1w%3D100v%3D44.png,https://raw.githubusercontent.com/carero2/loss-perception/main/png/0.515blue1yellowb%3D1w%3D100v%3D44.png,,,,,,,,,true,f,keypress(f),0.515,0.515,false,254224.7000000002,254223.5,253309.77,253564.59999999963,253559.453,254242.14,,,
choice,canvas.Screen,0_8_18_2,2022-07-15T14:11:55.963Z,,,,0.545,,6,999.2989999999991,timeout,,,0.545,,0.515,,,-9,-35,,,,,,,,,,,0.515,false,255225.90000000037,255224.705,254225.494,254238,254242.14,255241.439,65,,
ITI,canvas.Screen,0_8_18_3,2022-07-15T14:11:56.462Z,,,2724,,,6,499.49099999998,timeout,,,0.545,,,,,,,,,,,,,,,,,0.515,false,255724.90000000037,255724.233,255224.705,255226.40000000037,255241.439,255740.93,,,
trial,flow.Sequence,0_8_18,2022-07-15T14:11:56.462Z,,,,,,6,2897.521999999997,completion,,,0.545,,,,,,,,,,,,,,,,,0.515,false,255725.09999999963,255724.233,252810.072,252810.90000000037,252826.711,255740.93,,,
fixation,canvas.Screen,0_8_19_0,2022-07-15T14:11:56.962Z,,,,,,4,749.4210000000021,timeout,,,0.53,,,,,,,,,,,,,,,,,0.51,true,256225,256224.012,255724.233,255725.2000000002,255740.93,256490.351,,,
stimulus,canvas.Screen,0_8_19_1,2022-07-15T14:11:57.746Z,,,,,,4,515.1490000000049,response,,0.51,0.53,,,https://raw.githubusercontent.com/carero2/loss-perception/main/png/0.51blue1yellowb%3D1w%3D100v%3D53.png,https://raw.githubusercontent.com/carero2/loss-perception/main/png/0.53blue1yellowb%3D1w%3D100v%3D53.png,,,,,,,,,true,j,keypress(j),0.53,0.51,true,257008.59999999963,257005.5,256224.012,256495.5,256490.351,257039.815,,,
choice,canvas.Screen,0_8_19_2,2022-07-15T14:11:58.761Z,,,,0.53,,4,999.1900000000023,timeout,,,0.53,,0.51,,,-6,-41,,,,,,,,,,,0.51,true,258024.59999999963,258023.302,257023.282,257035.7999999998,257039.815,258039.005,59,,
ITI,canvas.Screen,0_8_19_3,2022-07-15T14:11:59.260Z,,,2874,,,4,499.69999999998254,timeout,,,0.53,,,,,,,,,,,,,,,,,0.51,true,258522.7999999998,258521.973,258023.302,258025,258039.005,258538.705,,,
trial,flow.Sequence,0_8_19,2022-07-15T14:11:59.260Z,,,,,,4,2781.043000000005,completion,,,0.53,,,,,,,,,,,,,,,,,0.51,true,258522.90000000037,258521.973,255724.233,255725.2000000002,255740.93,258538.705,,,
fixation,canvas.Screen,0_8_20_0,2022-07-15T14:11:59.759Z,,,,,,2,732.7230000000272,timeout,,,0.515,,,,,,,,,,,,,,,,,0.505,true,259022.2000000002,259021.635,258521.973,258523,258538.705,259271.428,,,
stimulus,canvas.Screen,0_8_20_1,2022-07-15T14:12:00.513Z,,,,,,2,501.27200000017183,response,,0.505,0.515,,,https://raw.githubusercontent.com/carero2/loss-perception/main/png/0.505blue1yellowb%3D1w%3D100v%3D71.png,https://raw.githubusercontent.com/carero2/loss-perception/main/png/0.515blue1yellowb%3D1w%3D100v%3D71.png,,,,,,,,,true,f,keypress(f),0.515,0.505,true,259775.7000000002,259772.7000000002,259021.635,259277.09999999963,259271.428,259820.989,,,
choice,canvas.Screen,0_8_20_2,2022-07-15T14:12:01.541Z,,,,0.505,,2,999.1169999999984,timeout,,,0.515,,0.515,,,-1,-42,,,,,,,,,,,0.505,true,260804.09999999963,260803.439,259804.36,259787.2999999998,259820.989,260820.106,58,,
ITI,canvas.Screen,0_8_20_3,2022-07-15T14:12:02.041Z,,,2102,,,2,499.6380000000063,timeout,,,0.515,,,,,,,,,,,,,,,,,0.505,true,261303.59999999963,261303.104,260803.439,260804.2999999998,260820.106,261319.744,,,
trial,flow.Sequence,0_8_20,2022-07-15T14:12:02.041Z,,,,,,2,2764.399000000005,completion,,,0.515,,,,,,,,,,,,,,,,,0.505,true,261303.7999999998,261303.104,258521.973,258522.90000000037,258538.705,261319.744,,,
fixation,canvas.Screen,0_8_21_0,2022-07-15T14:12:02.541Z,,,,,,2,766.0229999999865,timeout,,,0.505,,,,,,,,,,,,,,,,,0.495,false,261803.7999999998,261802.655,261303.104,261303.90000000037,261319.744,262085.767,,,
stimulus,canvas.Screen,0_8_21_1,2022-07-15T14:12:03.346Z,,,,,,2,520.13300000038,response,,0.505,0.505,,,https://raw.githubusercontent.com/carero2/loss-perception/main/png/0.505blue1yellowb%3D1w%3D100v%3D96.png,https://raw.githubusercontent.com/carero2/loss-perception/main/png/0.495blue1yellowb%3D1w%3D100v%3D96.png,,,,,,,,,true,f,keypress(f),0.495,0.495,false,262609.2999999998,262605.9000000004,261802.655,262096.59999999963,262085.767,262651.937,,,
choice,canvas.Screen,0_8_21_2,2022-07-15T14:12:04.372Z,,,,0.505,,2,999.1620000000112,timeout,,,0.505,,0.495,,,-1,-43,,,,,,,,,,,0.495,false,263635.2000000002,263634.509,262635.258,262636.5999999996,262651.937,263651.099,57,,
ITI,canvas.Screen,0_8_21_3,2022-07-15T14:12:04.872Z,,,2707,,,2,499.6010000000242,timeout,,,0.505,,,,,,,,,,,,,,,,,0.495,false,264134.5999999996,264134.038,263634.509,263635.4000000004,263651.099,264150.7,,,
trial,flow.Sequence,0_8_21,2022-07-15T14:12:04.872Z,,,,,,2,2814.2939999999944,completion,,,0.505,,,,,,,,,,,,,,,,,0.495,false,264134.9000000004,264134.038,261303.104,261303.90000000037,261319.744,264150.7,,,
fixation,canvas.Screen,0_8_22_0,2022-07-15T14:12:05.372Z,,,,,,6,732.7660000000033,timeout,,,0.485,,,,,,,,,,,,,,,,,0.455,false,264634.9000000004,264633.646,264134.038,264135,264150.7,264883.466,,,
stimulus,canvas.Screen,0_8_22_1,2022-07-15T14:12:06.022Z,,,,,,6,399.23400000017136,response,,0.485,0.485,,,https://raw.githubusercontent.com/carero2/loss-perception/main/png/0.485blue1yellowb%3D1w%3D100v%3D37.png,https://raw.githubusercontent.com/carero2/loss-perception/main/png/0.455blue1yellowb%3D1w%3D100v%3D37.png,,,,,,,,,true,f,keypress(f),0.455,0.455,false,265285.2999999998,265282.7000000002,264633.646,264889.2999999998,264883.466,265299.729,,,
choice,canvas.Screen,0_8_22_2,2022-07-15T14:12:07.020Z,,,,0.485,,6,999.1720000000205,timeout,,,0.485,,0.455,,,3,-40,,,,,,,,,,,0.455,false,266283.4000000004,266282.388,265283.198,265297.2000000002,265299.729,266298.901,60,,
ITI,canvas.Screen,0_8_22_3,2022-07-15T14:12:07.520Z,,,2865,,,6,499.60699999995995,timeout,,,0.485,,,,,,,,,,,,,,,,,0.455,false,266783.2000000002,266781.947,266282.388,266283.7000000002,266298.901,266798.508,,,
trial,flow.Sequence,0_8_22,2022-07-15T14:12:07.521Z,,,,,,6,2631.246999999974,completion,,,0.485,,,,,,,,,,,,,,,,,0.455,false,266783.9000000004,266781.947,264134.038,264135,264150.7,266798.508,,,
fixation,canvas.Screen,0_8_23_0,2022-07-15T14:12:08.020Z,,,,,,4,782.7480000000214,timeout,,,0.51,,,,,,,,,,,,,,,,,0.49,true,267282.7000000002,267281.541,266781.947,266784.2999999998,266798.508,267581.256,,,
stimulus,canvas.Screen,0_8_23_1,2022-07-15T14:12:08.702Z,,,,,,4,381.74400000000605,response,,0.49,0.51,,,https://raw.githubusercontent.com/carero2/loss-perception/main/png/0.49blue1yellowb%3D1w%3D100v%3D49.png,https://raw.githubusercontent.com/carero2/loss-perception/main/png/0.51blue1yellowb%3D1w%3D100v%3D49.png,,,,,,,,,true,j,keypress(j),0.51,0.49,true,267964.7999999998,267963,267281.541,267587.4000000004,267581.256,267980.853,,,
choice,canvas.Screen,0_8_23_2,2022-07-15T14:12:09.702Z,,,,0.51,,4,999.2039999999688,timeout,,,0.51,,0.49,,,-2,-42,,,,,,,,,,,0.49,true,268964.7999999998,268963.488,267964.337,267978.2000000002,267980.853,268980.057,58,,
ITI,canvas.Screen,0_8_23_3,2022-07-15T14:12:10.201Z,,,2707,,,4,499.658000000054,timeout,,,0.51,,,,,,,,,,,,,,,,,0.49,true,269464.2999999998,269463.122,268963.488,268965.2999999998,268980.057,269479.715,,,
trial,flow.Sequence,0_8_23,2022-07-15T14:12:10.202Z,,,,,,4,2664.6140000000014,completion,,,0.51,,,,,,,,,,,,,,,,,0.49,true,269465,269463.122,266781.947,266784.2000000002,266798.508,269479.715,,,
fixation,canvas.Screen,0_8_24_0,2022-07-15T14:12:10.701Z,,,,,,2,815.9780000000028,timeout,,,0.495,,,,,,,,,,,,,,,,,0.485,false,269963.9000000004,269962.659,269463.122,269465.4000000004,269479.715,270295.693,,,
stimulus,canvas.Screen,0_8_24_1,2022-07-15T14:12:11.542Z,,,,,,2,505.7070000003441,response,,0.495,0.495,,,https://raw.githubusercontent.com/carero2/loss-perception/main/png/0.495blue1yellowb%3D1w%3D100v%3D93.png,https://raw.githubusercontent.com/carero2/loss-perception/main/png/0.485blue1yellowb%3D1w%3D100v%3D93.png,,,,,,,,,true,f,keypress(f),0.485,0.485,false,270805.4000000004,270801.4000000004,269962.659,270300.7000000002,270295.693,270828.53,,,
choice,canvas.Screen,0_8_24_2,2022-07-15T14:12:12.549Z,,,,0.495,,2,999.2519999999786,timeout,,,0.495,,0.485,,,1,-41,,,,,,,,,,,0.485,false,271812.5,271811.151,270811.937,270816.7000000002,270828.53,271827.782,59,,
ITI,canvas.Screen,0_8_24_3,2022-07-15T14:12:13.048Z,,,2042,,,2,499.61999999999534,timeout,,,0.495,,,,,,,,,,,,,,,,,0.485,false,272311.4000000004,272310.741,271811.151,271812.9000000004,271827.782,272327.402,,,
trial,flow.Sequence,0_8_24,2022-07-15T14:12:13.049Z,,,,,,2,2831.0259999999544,completion,,,0.495,,,,,,,,,,,,,,,,,0.485,false,272311.5999999996,272310.741,269463.122,269465.4000000004,269479.715,272327.402,,,
fixation,canvas.Screen,0_8_25_0,2022-07-15T14:12:13.548Z,,,,,,6,882.4569999999949,timeout,,,0.515,,,,,,,,,,,,,,,,,0.485,true,272810.9000000004,272810.329,272310.741,272311.7000000002,272327.402,273209.859,,,
stimulus,canvas.Screen,0_8_25_1,2022-07-15T14:12:14.453Z,,,,,,6,503.3410000001895,response,,0.485,0.515,,,https://raw.githubusercontent.com/carero2/loss-perception/main/png/0.485blue1yellowb%3D1w%3D100v%3D78.png,https://raw.githubusercontent.com/carero2/loss-perception/main/png/0.515blue1yellowb%3D1w%3D100v%3D78.png,,,,,,,,,true,j,keypress(j),0.515,0.485,true,273715.9000000004,273713.2000000002,272810.329,273214.5999999996,273209.859,273742.87,,,
choice,canvas.Screen,0_8_25_2,2022-07-15T14:12:15.464Z,,,,0.515,,6,999.1539999999804,timeout,,,0.515,,0.485,,,-3,-44,,,,,,,,,,,0.485,true,274726.7999999998,274725.434,273726.165,273727.2000000002,273742.87,274742.024,56,,
ITI,canvas.Screen,0_8_25_3,2022-07-15T14:12:15.963Z,,,2554,,,6,499.97299999999814,timeout,,,0.515,,,,,,,,,,,,,,,,,0.485,true,275226,275224.985,274725.434,274727.2000000002,274742.024,275241.997,,,
trial,flow.Sequence,0_8_25,2022-07-15T14:12:15.964Z,,,,,,6,2897.582999999984,completion,,,0.515,,,,,,,,,,,,,,,,,0.485,true,275226.7000000002,275224.985,272310.741,272311.7000000002,272327.402,275241.997,,,
fixation,canvas.Screen,0_8_26_0,2022-07-15T14:12:16.463Z,,,,,,4,715.7250000000349,timeout,,,0.49,,,,,,,,,,,,,,,,,0.47,false,275725.7999999998,275724.642,275224.985,275227,275241.997,275957.722,,,
stimulus,canvas.Screen,0_8_26_1,2022-07-15T14:12:17.227Z,,,,,,4,530.8779999996186,response,,0.49,0.49,,,https://raw.githubusercontent.com/carero2/loss-perception/main/png/0.49blue1yellowb%3D1w%3D100v%3D28.png,https://raw.githubusercontent.com/carero2/loss-perception/main/png/0.47blue1yellowb%3D1w%3D100v%3D28.png,,,,,,,,,true,f,keypress(f),0.47,0.47,false,276489.7000000002,276488.5999999996,275724.642,275964.5999999996,275957.722,276507.475,,,
choice,canvas.Screen,0_8_26_2,2022-07-15T14:12:18.228Z,,,,0.49,,4,999.2780000000494,timeout,,,0.49,,0.47,,,2,-42,,,,,,,,,,,0.47,false,277491.0999999996,277489.835,276490.539,276500.4000000004,276507.475,277506.753,58,,
ITI,canvas.Screen,0_8_26_3,2022-07-15T14:12:18.727Z,,,2041,,,4,499.1909999999916,timeout,,,0.49,,,,,,,,,,,,,,,,,0.47,false,277990.2000000002,277989.379,277489.835,277491.4000000004,277506.753,278005.944,,,
trial,flow.Sequence,0_8_26,2022-07-15T14:12:18.728Z,,,,,,4,2747.3820000000414,completion,,,0.49,,,,,,,,,,,,,,,,,0.47,false,277990.7999999998,277989.379,275224.985,275226.9000000004,275241.997,278005.944,,,
fixation,canvas.Screen,0_8_27_0,2022-07-15T14:12:19.227Z,,,,,,2,766.0879999999888,timeout,,,0.515,,,,,,,,,,,,,,,,,0.505,false,278489.5999999996,278489.027,277989.379,277991,278005.944,278772.032,,,
stimulus,canvas.Screen,0_8_27_1,2022-07-15T14:12:19.949Z,,,,,,2,438.368000000366,response,,0.515,0.515,,,https://raw.githubusercontent.com/carero2/loss-perception/main/png/0.515blue1yellowb%3D1w%3D100v%3D29.png,https://raw.githubusercontent.com/carero2/loss-perception/main/png/0.505blue1yellowb%3D1w%3D100v%3D29.png,,,,,,,,,true,f,keypress(f),0.505,0.505,false,279212.4000000004,279210.4000000004,278489.027,278777.2000000002,278772.032,279238.323,,,
choice,canvas.Screen,0_8_27_2,2022-07-15T14:12:20.959Z,,,,0.515,,2,999.1410000000033,timeout,,,0.515,,0.505,,,-3,-45,,,,,,,,,,,0.505,false,280222.0999999996,280221.035,279221.713,279225.9000000004,279238.323,280237.464,55,,
ITI,canvas.Screen,0_8_27_3,2022-07-15T14:12:21.458Z,,,2045,,,2,499.78800000000047,timeout,,,0.515,,,,,,,,,,,,,,,,,0.505,false,280721,280720.486,280221.035,280222.5999999996,280237.464,280737.252,,,
trial,flow.Sequence,0_8_27,2022-07-15T14:12:21.458Z,,,,,,2,2714.5419999999576,completion,,,0.515,,,,,,,,,,,,,,,,,0.505,false,280721.4000000004,280720.486,277989.379,277990.9000000004,278005.944,280737.252,,,
fixation,canvas.Screen,0_8_28_0,2022-07-15T14:12:21.958Z,,,,,,6,516.0570000000298,timeout,,,0.515,,,,,,,,,,,,,,,,,0.485,false,281221.2999999998,281220.136,280720.486,280721.5,280737.252,281253.309,,,
stimulus,canvas.Screen,0_8_28_1,2022-07-15T14:12:22.468Z,,,,,,6,475.1909999999916,response,,0.515,0.515,,,https://raw.githubusercontent.com/carero2/loss-perception/main/png/0.515blue1yellowb%3D1w%3D100v%3D51.png,https://raw.githubusercontent.com/carero2/loss-perception/main/png/0.485blue1yellowb%3D1w%3D100v%3D51.png,,,,,,,,,true,f,keypress(f),0.485,0.485,false,281731.2999999998,281728.5,281220.136,281252.7999999998,281253.309,281753.085,,,
choice,canvas.Screen,0_8_28_2,2022-07-15T14:12:23.473Z,,,,0.515,,6,999.0019999999786,timeout,,,0.515,,0.485,,,-3,-48,,,,,,,,,,,0.485,false,282736.2999999998,282735.51,281736.267,281743.5999999996,281753.085,282752.087,52,,
ITI,canvas.Screen,0_8_28_3,2022-07-15T14:12:23.973Z,,,2270,,,6,499.5819999999949,timeout,,,0.515,,,,,,,,,,,,,,,,,0.485,false,283236.2999999998,283235.167,282735.51,282736.5999999996,282752.087,283251.669,,,
trial,flow.Sequence,0_8_28,2022-07-15T14:12:23.974Z,,,,,,6,2497.9150000000373,completion,,,0.515,,,,,,,,,,,,,,,,,0.485,false,283236.9000000004,283235.167,280720.486,280721.5,280737.252,283251.669,,,
fixation,canvas.Screen,0_8_29_0,2022-07-15T14:12:24.473Z,,,,,,2,716.0730000000331,timeout,,,0.505,,,,,,,,,,,,,,,,,0.495,false,283736,283734.777,283235.167,283237.2000000002,283251.669,283967.742,,,
stimulus,canvas.Screen,0_8_29_1,2022-07-15T14:12:25.214Z,,,,,,2,505.8579999996,response,,0.505,0.505,,,https://raw.githubusercontent.com/carero2/loss-perception/main/png/0.505blue1yellowb%3D1w%3D100v%3D97.png,https://raw.githubusercontent.com/carero2/loss-perception/main/png/0.495blue1yellowb%3D1w%3D100v%3D97.png,,,,,,,,,true,f,keypress(f),0.495,0.495,false,284477,284473.5999999996,283734.777,283975.5999999996,283967.742,284500.746,,,
choice,canvas.Screen,0_8_29_2,2022-07-15T14:12:26.221Z,,,,0.505,,2,999.0489999999991,timeout,,,0.505,,0.495,,,-1,-49,,,,,,,,,,,0.495,false,285484.5,285483.367,284484.062,284488.2999999998,284500.746,285499.795,51,,
ITI,canvas.Screen,0_8_29_3,2022-07-15T14:12:26.720Z,,,2332,,,2,499.66300000000047,timeout,,,0.505,,,,,,,,,,,,,,,,,0.495,false,285983.4000000004,285982.766,285483.367,285484.9000000004,285499.795,285999.458,,,
trial,flow.Sequence,0_8_29,2022-07-15T14:12:26.721Z,,,,,,2,2731.097000000009,completion,,,0.505,,,,,,,,,,,,,,,,,0.495,false,285983.7999999998,285982.766,283235.167,283237.0999999996,283251.669,285999.458,,,
fixation,canvas.Screen,0_8_30_0,2022-07-15T14:12:27.221Z,,,,,,4,499.76500000001397,timeout,,,0.51,,,,,,,,,,,,,,,,,0.49,true,286483.5999999996,286482.529,285982.766,285983.9000000004,285999.458,286499.223,,,
stimulus,canvas.Screen,0_8_30_1,2022-07-15T14:12:28.299Z,,,,,,4,1060.2770000000019,response,,0.49,0.51,,,https://raw.githubusercontent.com/carero2/loss-perception/main/png/0.49blue1yellowb%3D1w%3D100v%3D20.png,https://raw.githubusercontent.com/carero2/loss-perception/main/png/0.51blue1yellowb%3D1w%3D100v%3D20.png,,,,,,,,,true,j,keypress(j),0.51,0.49,true,287562.4000000004,287559.5,286482.529,286497.2000000002,286499.223,287598.09,,,
choice,canvas.Screen,0_8_30_2,2022-07-15T14:12:29.318Z,,,,0.51,,4,999.2859999999637,timeout,,,0.51,,0.49,,,-2,-51,,,,,,,,,,,0.49,true,288581.4000000004,288580.73,287581.48,287591.7000000002,287598.09,288597.376,49,,
ITI,canvas.Screen,0_8_30_3,2022-07-15T14:12:29.818Z,,,2446,,,4,500.12200000003213,timeout,,,0.51,,,,,,,,,,,,,,,,,0.49,true,289081.5,289080.315,288580.73,288581.5,288597.376,289097.498,,,
trial,flow.Sequence,0_8_30,2022-07-15T14:12:29.819Z,,,,,,4,3080.857000000018,completion,,,0.51,,,,,,,,,,,,,,,,,0.49,true,289082.0999999996,289080.315,285982.766,285983.7999999998,285999.458,289097.498,,,
fixation,canvas.Screen,0_8_31_0,2022-07-15T14:12:30.318Z,,,,,,6,748.7539999999572,timeout,,,0.485,,,,,,,,,,,,,,,,,0.455,true,289581.0999999996,289579.938,289080.315,289082.2999999998,289097.498,289846.252,,,
stimulus,canvas.Screen,0_8_31_1,2022-07-15T14:12:30.969Z,,,,,,6,381.7480000000214,response,,0.455,0.485,,,https://raw.githubusercontent.com/carero2/loss-perception/main/png/0.455blue1yellowb%3D1w%3D100v%3D64.png,https://raw.githubusercontent.com/carero2/loss-perception/main/png/0.485blue1yellowb%3D1w%3D100v%3D64.png,,,,,,,,,true,f,keypress(f),0.485,0.455,true,290231.5,290228,289579.938,289856.5,289846.252,290262.557,,,
choice,canvas.Screen,0_8_31_2,2022-07-15T14:12:31.983Z,,,,0.455,,6,999.4120000000112,timeout,,,0.485,,0.485,,,9,-42,,,,,,,,,,,0.455,true,291246.5999999996,291245.251,290246.043,290256.7999999998,290262.557,291261.969,58,,
ITI,canvas.Screen,0_8_31_3,2022-07-15T14:12:32.483Z,,,2930,,,6,499.48300000000745,timeout,,,0.485,,,,,,,,,,,,,,,,,0.455,true,291745.9000000004,291744.766,291245.251,291246.9000000004,291261.969,291761.452,,,
trial,flow.Sequence,0_8_31,2022-07-15T14:12:32.484Z,,,,,,6,2647.267999999982,completion,,,0.485,,,,,,,,,,,,,,,,,0.455,true,291746.5999999996,291744.766,289080.315,289082.2999999998,289097.498,291761.452,,,
fixation,canvas.Screen,0_8_32_0,2022-07-15T14:12:32.982Z,,,,,,6,749.359999999986,timeout,,,0.545,,,,,,,,,,,,,,,,,0.515,false,292245.5,292244.437,291744.766,291746.9000000004,291761.452,292510.812,,,
stimulus,canvas.Screen,0_8_32_1,2022-07-15T14:12:33.905Z,,,,,,6,655.88800000021,response,,0.545,0.545,,,https://raw.githubusercontent.com/carero2/loss-perception/main/png/0.545blue1yellowb%3D1w%3D100v%3D65.png,https://raw.githubusercontent.com/carero2/loss-perception/main/png/0.515blue1yellowb%3D1w%3D100v%3D65.png,,,,,,,,,true,f,keypress(f),0.515,0.515,false,293167.7999999998,293166.7000000002,292244.437,292516.2999999998,292510.812,293193.543,,,
choice,canvas.Screen,0_8_32_2,2022-07-15T14:12:34.914Z,,,,0.545,,6,999.1539999999804,timeout,,,0.545,,0.515,,,-9,-51,,,,,,,,,,,0.515,false,294176.5999999996,294176.031,293176.901,293179.5,293193.543,294192.697,49,,
ITI,canvas.Screen,0_8_32_3,2022-07-15T14:12:35.414Z,,,2971,,,6,499.66500000003725,timeout,,,0.545,,,,,,,,,,,,,,,,,0.515,false,294677,294675.706,294176.031,294176.7999999998,294192.697,294692.362,,,
trial,flow.Sequence,0_8_32,2022-07-15T14:12:35.415Z,,,,,,6,2914.2540000000154,completion,,,0.545,,,,,,,,,,,,,,,,,0.515,false,294677.7000000002,294675.706,291744.766,291746.7999999998,291761.452,294692.362,,,
fixation,canvas.Screen,0_8_33_0,2022-07-15T14:12:35.913Z,,,,,,4,699.4309999999823,timeout,,,0.49,,,,,,,,,,,,,,,,,0.47,false,295176.0999999996,295175.31,294675.706,294678,294692.362,295391.793,,,
stimulus,canvas.Screen,0_8_33_1,2022-07-15T14:12:36.789Z,,,,,,4,657.3069999996223,response,,0.49,0.49,,,https://raw.githubusercontent.com/carero2/loss-perception/main/png/0.49blue1yellowb%3D1w%3D100v%3D8.png,https://raw.githubusercontent.com/carero2/loss-perception/main/png/0.47blue1yellowb%3D1w%3D100v%3D8.png,,,,,,,,,true,f,keypress(f),0.47,0.47,false,296052.4000000004,296049.0999999996,295175.31,295397.5,295391.793,296074.722,,,
choice,canvas.Screen,0_8_33_2,2022-07-15T14:12:37.795Z,,,,0.49,,4,998.9319999999716,timeout,,,0.49,,0.47,,,2,-49,,,,,,,,,,,0.47,false,297058.5,297057.068,296057.954,296064.4000000004,296074.722,297073.654,51,,
ITI,canvas.Screen,0_8_33_3,2022-07-15T14:12:38.295Z,,,2305,,,4,499.64199999999255,timeout,,,0.49,,,,,,,,,,,,,,,,,0.47,false,297558,297556.751,297057.068,297058.9000000004,297073.654,297573.296,,,
trial,flow.Sequence,0_8_33,2022-07-15T14:12:38.296Z,,,,,,4,2864.3889999999665,completion,,,0.49,,,,,,,,,,,,,,,,,0.47,false,297558.7000000002,297556.751,294675.706,294677.9000000004,294692.362,297573.296,,,
fixation,canvas.Screen,0_8_34_0,2022-07-15T14:12:38.794Z,,,,,,4,749.4160000000265,timeout,,,0.53,,,,,,,,,,,,,,,,,0.51,false,298056.7999999998,298056.271,297556.751,297559,297573.296,298322.712,,,
stimulus,canvas.Screen,0_8_34_1,2022-07-15T14:12:39.905Z,,,,,,4,843.7880000000005,response,,0.53,0.53,,,https://raw.githubusercontent.com/carero2/loss-perception/main/png/0.53blue1yellowb%3D1w%3D100v%3D79.png,https://raw.githubusercontent.com/carero2/loss-perception/main/png/0.51blue1yellowb%3D1w%3D100v%3D79.png,,,,,,,,,true,f,keypress(f),0.51,0.51,false,299168.2000000002,299166.5,298056.271,298327.5,298322.712,299188.584,,,
choice,canvas.Screen,0_8_34_2,2022-07-15T14:12:40.909Z,,,,0.53,,4,999.1820000000298,timeout,,,0.53,,0.51,,,-6,-55,,,,,,,,,,,0.51,false,300171.7999999998,300171.167,299171.902,299187,299188.584,300187.766,45,,
ITI,canvas.Screen,0_8_34_3,2022-07-15T14:12:41.409Z,,,2287,,,4,499.5709999999963,timeout,,,0.53,,,,,,,,,,,,,,,,,0.51,false,300672,300670.839,300171.167,300171.9000000004,300187.766,300687.337,,,
trial,flow.Sequence,0_8_34,2022-07-15T14:12:41.410Z,,,,,,4,3097.543000000005,completion,,,0.53,,,,,,,,,,,,,,,,,0.51,false,300672.5,300670.839,297556.751,297558.9000000004,297573.296,300687.337,,,
fixation,canvas.Screen,0_8_35_0,2022-07-15T14:12:41.908Z,,,,,,2,699.4890000000014,timeout,,,0.495,,,,,,,,,,,,,,,,,0.485,false,301170.9000000004,301170.335,300670.839,300672.7999999998,300687.337,301386.826,,,
stimulus,canvas.Screen,0_8_35_1,2022-07-15T14:12:43.016Z,,,,,,2,891.5740000003716,response,,0.495,0.495,,,https://raw.githubusercontent.com/carero2/loss-perception/main/png/0.495blue1yellowb%3D1w%3D100v%3D5.png,https://raw.githubusercontent.com/carero2/loss-perception/main/png/0.485blue1yellowb%3D1w%3D100v%3D5.png,,,,,,,,,true,j,keypress(j),0.485,0.485,false,302279.4000000004,302278.4000000004,301170.335,301392,301386.826,302302.857,,,
choice,canvas.Screen,0_8_35_2,2022-07-15T14:12:44.024Z,,,,0.485,,2,999.1730000000098,timeout,,,0.495,,0.495,,,3,-52,,,,,,,,,,,0.485,false,303286.7000000002,303285.458,302286.104,302290.9000000004,302302.857,303302.03,48,,
ITI,canvas.Screen,0_8_35_3,2022-07-15T14:12:44.522Z,,,2512,,,2,499.5209999999497,timeout,,,0.495,,,,,,,,,,,,,,,,,0.485,false,303785.5,303784.888,303285.458,303287.2000000002,303302.03,303801.551,,,
trial,flow.Sequence,0_8_35,2022-07-15T14:12:44.523Z,,,,,,2,3097.5509999999776,completion,,,0.495,,,,,,,,,,,,,,,,,0.485,false,303785.7000000002,303784.888,300670.839,300672.7999999998,300687.337,303801.551,,,
fixation,canvas.Screen,0_8_36_0,2022-07-15T14:12:45.023Z,,,,,,2,782.6380000000354,timeout,,,0.495,,,,,,,,,,,,,,,,,0.485,true,304285.7000000002,304284.505,303784.888,303785.7000000002,303801.551,304584.189,,,
stimulus,canvas.Screen,0_8_36_1,2022-07-15T14:12:45.940Z,,,,,,2,616.2110000003595,response,,0.485,0.495,,,https://raw.githubusercontent.com/carero2/loss-perception/main/png/0.485blue1yellowb%3D1w%3D100v%3D47.png,https://raw.githubusercontent.com/carero2/loss-perception/main/png/0.495blue1yellowb%3D1w%3D100v%3D47.png,,,,,,,,,true,f,keypress(f),0.495,0.485,true,305203.0999999996,305200.4000000004,304284.505,304597.5,304584.189,305267.005,,,
choice,canvas.Screen,0_8_36_2,2022-07-15T14:12:46.988Z,,,,0.485,,2,999.1880000000237,timeout,,,0.495,,0.495,,,3,-49,,,,,,,,,,,0.485,true,306250.7000000002,306249.551,305250.319,305233.4000000004,305267.005,306266.193,51,,
ITI,canvas.Screen,0_8_36_3,2022-07-15T14:12:47.487Z,,,2347,,,2,499.53899999998976,timeout,,,0.495,,,,,,,,,,,,,,,,,0.485,true,306750.4000000004,306749.153,306249.551,306251.2000000002,306266.193,306765.732,,,
trial,flow.Sequence,0_8_36,2022-07-15T14:12:47.488Z,,,,,,2,2947.6020000000135,completion,,,0.495,,,,,,,,,,,,,,,,,0.485,true,306751,306749.153,303784.888,303785.7000000002,303801.551,306765.732,,,
fixation,canvas.Screen,0_8_37_0,2022-07-15T14:12:47.987Z,,,,,,4,832.7129999999888,timeout,,,0.53,,,,,,,,,,,,,,,,,0.51,false,307249.7999999998,307248.765,306749.153,306751.2999999998,306765.732,307598.445,,,
stimulus,canvas.Screen,0_8_37_1,2022-07-15T14:12:48.874Z,,,,,,4,537.7550000001793,response,,0.53,0.53,,,https://raw.githubusercontent.com/carero2/loss-perception/main/png/0.53blue1yellowb%3D1w%3D100v%3D93.png,https://raw.githubusercontent.com/carero2/loss-perception/main/png/0.51blue1yellowb%3D1w%3D100v%3D93.png,,,,,,,,,true,f,keypress(f),0.51,0.51,false,308137.2999999998,308136.2000000002,307248.765,307611.5,307598.445,308164.585,,,
choice,canvas.Screen,0_8_37_2,2022-07-15T14:12:49.885Z,,,,0.53,,4,999.3009999999776,timeout,,,0.53,,0.51,,,-6,-55,,,,,,,,,,,0.51,false,309148.4000000004,309147.215,308147.954,308148.2000000002,308164.585,309163.886,45,,
ITI,canvas.Screen,0_8_37_3,2022-07-15T14:12:50.385Z,,,2965,,,4,499.6359999999986,timeout,,,0.53,,,,,,,,,,,,,,,,,0.51,false,309647.9000000004,309646.823,309147.215,309148.7999999998,309163.886,309663.522,,,
trial,flow.Sequence,0_8_37,2022-07-15T14:12:50.386Z,,,,,,4,2881.0909999999567,completion,,,0.53,,,,,,,,,,,,,,,,,0.51,false,309648.7000000002,309646.823,306749.153,306751.2999999998,306765.732,309663.522,,,
fixation,canvas.Screen,0_8_38_0,2022-07-15T14:12:50.884Z,,,,,,4,732.5879999999888,timeout,,,0.49,,,,,,,,,,,,,,,,,0.47,true,310146.9000000004,310146.374,309646.823,309648.9000000004,309663.522,310396.11,,,
stimulus,canvas.Screen,0_8_38_1,2022-07-15T14:12:51.676Z,,,,,,4,542.0900000002002,response,,0.47,0.49,,,https://raw.githubusercontent.com/carero2/loss-perception/main/png/0.47blue1yellowb%3D1w%3D100v%3D85.png,https://raw.githubusercontent.com/carero2/loss-perception/main/png/0.49blue1yellowb%3D1w%3D100v%3D85.png,,,,,,,,,true,j,keypress(j),0.49,0.47,true,310939.4000000004,310938.2000000002,310146.374,310401.4000000004,310396.11,310962.443,,,
choice,canvas.Screen,0_8_38_2,2022-07-15T14:12:52.683Z,,,,0.49,,4,999.0429999999469,timeout,,,0.49,,0.47,,,2,-53,,,,,,,,,,,0.47,true,311946.2999999998,311944.934,310945.63,310952.2000000002,310962.443,311961.486,47,,
ITI,canvas.Screen,0_8_38_3,2022-07-15T14:12:53.182Z,,,2547,,,4,499.53000000002794,timeout,,,0.49,,,,,,,,,,,,,,,,,0.47,true,312444.9000000004,312444.405,311944.934,311946.7000000002,311961.486,312461.016,,,
trial,flow.Sequence,0_8_38,2022-07-15T14:12:53.182Z,,,,,,4,2780.8830000000307,completion,,,0.49,,,,,,,,,,,,,,,,,0.47,true,312445.2000000002,312444.405,309646.823,309648.7999999998,309663.522,312461.016,,,
fixation,canvas.Screen,0_8_39_0,2022-07-15T14:12:53.682Z,,,,,,2,783.7490000000107,timeout,,,0.505,,,,,,,,,,,,,,,,,0.495,false,312944.7999999998,312944.054,312444.405,312445.2000000002,312461.016,313244.765,,,
stimulus,canvas.Screen,0_8_39_1,2022-07-15T14:12:54.570Z,,,,,,2,586.8349999996135,response,,0.505,0.505,,,https://raw.githubusercontent.com/carero2/loss-perception/main/png/0.505blue1yellowb%3D1w%3D100v%3D58.png,https://raw.githubusercontent.com/carero2/loss-perception/main/png/0.495blue1yellowb%3D1w%3D100v%3D58.png,,,,,,,,,true,j,keypress(j),0.495,0.495,false,313832.9000000004,313831.5999999996,312944.054,313251.5,313244.765,313860.102,,,
choice,canvas.Screen,0_8_39_2,2022-07-15T14:12:55.580Z,,,,0.495,,2,999.1790000000037,timeout,,,0.505,,0.505,,,1,-52,,,,,,,,,,,0.495,false,314843.7000000002,314842.561,313843.216,313844.5999999996,313860.102,314859.281,48,,
ITI,canvas.Screen,0_8_39_3,2022-07-15T14:12:56.080Z,,,2511,,,2,499.53999999997905,timeout,,,0.505,,,,,,,,,,,,,,,,,0.495,false,315343.4000000004,315342.227,314842.561,314844.0999999996,314859.281,315358.821,,,
trial,flow.Sequence,0_8_39,2022-07-15T14:12:56.080Z,,,,,,2,2881.2110000000102,completion,,,0.505,,,,,,,,,,,,,,,,,0.495,false,315344.2000000002,315342.227,312444.405,312445.2000000002,312461.016,315358.821,,,
fixation,canvas.Screen,0_8_40_0,2022-07-15T14:12:56.579Z,,,,,,6,732.5499999999884,timeout,,,0.485,,,,,,,,,,,,,,,,,0.455,false,315842.9000000004,315841.719,315342.227,315344.5,315358.821,316091.371,,,
stimulus,canvas.Screen,0_8_40_1,2022-07-15T14:12:57.370Z,,,,,,6,541.1290000000154,response,,0.485,0.485,,,https://raw.githubusercontent.com/carero2/loss-perception/main/png/0.485blue1yellowb%3D1w%3D100v%3D22.png,https://raw.githubusercontent.com/carero2/loss-perception/main/png/0.455blue1yellowb%3D1w%3D100v%3D22.png,,,,,,,,,true,f,keypress(f),0.455,0.455,false,316633.9000000004,316632.5,315841.719,316096.7000000002,316091.371,316657.584,,,
choice,canvas.Screen,0_8_40_2,2022-07-15T14:12:58.378Z,,,,0.485,,6,999.1920000000391,timeout,,,0.485,,0.455,,,3,-49,,,,,,,,,,,0.455,false,317641.4000000004,317640.314,316641.013,316648.5,316657.584,317656.776,51,,
ITI,canvas.Screen,0_8_40_3,2022-07-15T14:12:58.877Z,,,2027,,,6,499.6109999999753,timeout,,,0.485,,,,,,,,,,,,,,,,,0.455,false,318140.7000000002,318139.798,317640.314,317642.0999999996,317656.776,318156.387,,,
trial,flow.Sequence,0_8_40,2022-07-15T14:12:58.877Z,,,,,,6,2780.9770000000135,completion,,,0.485,,,,,,,,,,,,,,,,,0.455,false,318141.0999999996,318139.798,315342.227,315344.4000000004,315358.821,318156.387,,,
fixation,canvas.Screen,0_8_41_0,2022-07-15T14:12:59.376Z,,,,,,6,716.1050000000396,timeout,,,0.515,,,,,,,,,,,,,,,,,0.485,false,318640.0999999996,318639.401,318139.798,318141.0999999996,318156.387,318872.492,,,
stimulus,canvas.Screen,0_8_41_1,2022-07-15T14:13:00.461Z,,,,,,6,849.5079999999725,response,,0.515,0.515,,,https://raw.githubusercontent.com/carero2/loss-perception/main/png/0.515blue1yellowb%3D1w%3D100v%3D69.png,https://raw.githubusercontent.com/carero2/loss-perception/main/png/0.485blue1yellowb%3D1w%3D100v%3D69.png,,,,,,,,,true,f,keypress(f),0.485,0.485,false,319725,319722,318639.401,318877.5,318872.492,319738.392,,,
choice,canvas.Screen,0_8_41_2,2022-07-15T14:13:01.458Z,,,,0.515,,6,999.4970000000321,timeout,,,0.515,,0.485,,,-3,-52,,,,,,,,,,,0.485,false,320721.5999999996,320721.011,319721.809,319735.7999999998,319738.392,320737.889,48,,
ITI,canvas.Screen,0_8_41_3,2022-07-15T14:13:01.958Z,,,2730,,,6,499.3759999999893,timeout,,,0.515,,,,,,,,,,,,,,,,,0.485,false,321221.5999999996,321220.644,320721.011,320721.7999999998,320737.889,321237.265,,,
trial,flow.Sequence,0_8_41,2022-07-15T14:13:01.959Z,,,,,,6,3064.2569999999832,completion,,,0.515,,,,,,,,,,,,,,,,,0.485,false,321222.2999999998,321220.644,318139.798,318141.0999999996,318156.387,321237.265,,,
fixation,canvas.Screen,0_8_42_0,2022-07-15T14:13:02.458Z,,,,,,6,516.1350000000093,timeout,,,0.545,,,,,,,,,,,,,,,,,0.515,false,321721.2999999998,321720.207,321220.644,321222.5999999996,321237.265,321753.4,,,
stimulus,canvas.Screen,0_8_42_1,2022-07-15T14:13:02.923Z,,,,,,6,429.800000000163,response,,0.545,0.545,,,https://raw.githubusercontent.com/carero2/loss-perception/main/png/0.545blue1yellowb%3D1w%3D100v%3D72.png,https://raw.githubusercontent.com/carero2/loss-perception/main/png/0.515blue1yellowb%3D1w%3D100v%3D72.png,,,,,,,,,true,f,keypress(f),0.515,0.515,false,322186.7999999998,322183.2000000002,321720.207,321751.5,321753.4,322219.913,,,
choice,canvas.Screen,0_8_42_2,2022-07-15T14:13:03.939Z,,,,0.545,,6,998.9579999999842,timeout,,,0.545,,0.515,,,-9,-61,,,,,,,,,,,0.515,false,323202.7999999998,323202.229,322203.058,322211.5999999996,322219.913,323218.871,39,,
ITI,canvas.Screen,0_8_42_3,2022-07-15T14:13:04.439Z,,,2862,,,6,499.59700000000885,timeout,,,0.545,,,,,,,,,,,,,,,,,0.515,false,323703,323701.948,323202.229,323203.0999999996,323218.871,323718.468,,,
trial,flow.Sequence,0_8_42,2022-07-15T14:13:04.440Z,,,,,,6,2464.682999999961,completion,,,0.545,,,,,,,,,,,,,,,,,0.515,false,323703.5999999996,323701.948,321220.644,321222.5999999996,321237.265,323718.468,,,
fixation,canvas.Screen,0_8_43_0,2022-07-15T14:13:04.939Z,,,,,,2,782.7880000000005,timeout,,,0.515,,,,,,,,,,,,,,,,,0.505,true,324202.2999999998,324201.52,323701.948,323703.7999999998,323718.468,324501.256,,,
stimulus,canvas.Screen,0_8_43_1,2022-07-15T14:13:06.170Z,,,,,,2,929.8439999996335,response,,0.505,0.515,,,https://raw.githubusercontent.com/carero2/loss-perception/main/png/0.505blue1yellowb%3D1w%3D100v%3D74.png,https://raw.githubusercontent.com/carero2/loss-perception/main/png/0.515blue1yellowb%3D1w%3D100v%3D74.png,,,,,,,,,true,j,keypress(j),0.515,0.505,true,325433.7999999998,325431.0999999996,324201.52,324508.4000000004,324501.256,325467.015,,,
choice,canvas.Screen,0_8_43_2,2022-07-15T14:13:07.187Z,,,,0.515,,2,999.2179999999935,timeout,,,0.515,,0.505,,,-3,-64,,,,,,,,,,,0.505,true,326450.2999999998,326449.671,325450.42,325460.5999999996,325467.015,326466.233,36,,
ITI,canvas.Screen,0_8_43_3,2022-07-15T14:13:07.687Z,,,2399,,,2,499.54099999996834,timeout,,,0.515,,,,,,,,,,,,,,,,,0.505,true,326950.5,326949.318,326449.671,326450.5,326466.233,326965.774,,,
trial,flow.Sequence,0_8_43,2022-07-15T14:13:07.687Z,,,,,,2,3230.850000000035,completion,,,0.515,,,,,,,,,,,,,,,,,0.505,true,326951.2000000002,326949.318,323701.948,323703.7000000002,323718.468,326965.774,,,
fixation,canvas.Screen,0_8_44_0,2022-07-15T14:13:08.186Z,,,,,,4,782.8160000000498,timeout,,,0.51,,,,,,,,,,,,,,,,,0.49,true,327449.4000000004,327448.845,326949.318,326951.5,326965.774,327748.59,,,
stimulus,canvas.Screen,0_8_44_1,2022-07-15T14:13:09.103Z,,,,,,4,614.6100000001607,response,,0.49,0.51,,,https://raw.githubusercontent.com/carero2/loss-perception/main/png/0.49blue1yellowb%3D1w%3D100v%3D36.png,https://raw.githubusercontent.com/carero2/loss-perception/main/png/0.51blue1yellowb%3D1w%3D100v%3D36.png,,,,,,,,,true,j,keypress(j),0.51,0.49,true,328366.7999999998,328363.2000000002,327448.845,327754.5,327748.59,328397.944,,,
choice,canvas.Screen,0_8_44_2,2022-07-15T14:13:10.118Z,,,,0.51,,4,999.2060000000056,timeout,,,0.51,,0.49,,,-2,-66,,,,,,,,,,,0.49,true,329381.7999999998,329380.699,328381.39,328392.7000000002,328397.944,329397.15,34,,
ITI,canvas.Screen,0_8_44_3,2022-07-15T14:13:10.618Z,,,2383,,,4,499.6329999999725,timeout,,,0.51,,,,,,,,,,,,,,,,,0.49,true,329881.2999999998,329880.214,329380.699,329382.2999999998,329397.15,329896.783,,,
trial,flow.Sequence,0_8_44,2022-07-15T14:13:10.618Z,,,,,,4,2914.4400000000023,completion,,,0.51,,,,,,,,,,,,,,,,,0.49,true,329882,329880.214,326949.318,326951.4000000004,326965.774,329896.783,,,
1st block,flow.Loop,0_8,2022-07-15T14:13:10.619Z,,,,,,,135772.05,completion,,,,,,,,,,,,,,,,,,,,,,329882.4000000004,329880.214,194091.247,194099.2000000002,194108.164,329896.783,,,
show amount,html.Screen,0_9,2022-07-15T14:13:14.976Z,,,,,,,4339.9170000001905,response,,,,,,,,,,,,,,,,,Continue,click #Continue,,,,334239.7999999998,334236.7000000002,329880.214,329884.4000000004,329896.783,334243.161,,,
second block,canvas.Screen,0_10,2022-07-15T14:13:18.403Z,,,,,,,3422.838999999978,response,,,,,,,,,,,,,,,,,space,keypress(Space),,,,337666.9000000004,337666,334226.586,334239.9000000004,334243.161,337673.91,,,
fixation,canvas.Screen,0_11_0_0,2022-07-15T14:13:18.894Z,,,,,,2,932.4440000000177,timeout,,,0.515,,,,,,,,,,,,,,,,,0.505,false,338157.4000000004,338156.711,337656.961,337667.0999999996,337673.91,338606.354,,,
stimulus,canvas.Screen,0_11_0_1,2022-07-15T14:13:19.997Z,,,,,,2,653.6460000000079,response,,0.515,0.515,,,https://raw.githubusercontent.com/carero2/loss-perception/main/png/0.515blue1yellowb%3D1w%3D100v%3D15.png,https://raw.githubusercontent.com/carero2/loss-perception/main/png/0.505blue1yellowb%3D1w%3D100v%3D15.png,,,,,,,,,true,j,keypress(j),0.505,0.505,false,339261.0999999996,339260,338156.711,338612.5,338606.354,339289.051,,,
choice,canvas.Screen,0_11_0_2,2022-07-15T14:13:21.009Z,,,,0.505,,2,999.3580000000075,timeout,,,0.515,,0.515,,,-1,,-1,,,,,,,,,,0.505,false,340272.9000000004,340271.772,339272.448,339275.0999999996,339289.051,340288.409,33,,
ITI,canvas.Screen,0_11_0_3,2022-07-15T14:13:21.508Z,,,2586,,,2,499.37200000003213,timeout,,,0.515,,,,,,,,,,,,,,,,,0.505,false,340771.7999999998,340771.231,340271.772,340273.2999999998,340288.409,340787.781,,,
trial,flow.Sequence,0_11_0,2022-07-15T14:13:21.508Z,,,,,,2,3097.3210000000545,completion,,,0.515,,,,,,,,,,,,,,,,,0.505,false,340772,340771.231,337656.961,337667.0999999996,337673.91,340787.781,,,
fixation,canvas.Screen,0_11_1_0,2022-07-15T14:13:22.008Z,,,,,,4,766.1529999999912,timeout,,,0.51,,,,,,,,,,,,,,,,,0.49,true,341271.9000000004,341270.873,340771.231,340772.0999999996,340787.781,341553.934,,,
stimulus,canvas.Screen,0_11_1_1,2022-07-15T14:13:22.911Z,,,,,,4,618.4660000003641,response,,0.49,0.51,,,https://raw.githubusercontent.com/carero2/loss-perception/main/png/0.49blue1yellowb%3D1w%3D100v%3D45.png,https://raw.githubusercontent.com/carero2/loss-perception/main/png/0.51blue1yellowb%3D1w%3D100v%3D45.png,,,,,,,,,true,j,keypress(j),0.51,0.49,true,342174.5999999996,342172.4000000004,341270.873,341563.5,341553.934,342203.319,,,
choice,canvas.Screen,0_11_1_2,2022-07-15T14:13:23.923Z,,,,0.51,,4,999.2679999999818,timeout,,,0.51,,0.49,,,-2,,-3,,,,,,,,,,0.49,true,343186.7999999998,343185.989,342186.674,342195.5,342203.319,343202.587,31,,
ITI,canvas.Screen,0_11_1_3,2022-07-15T14:13:24.423Z,,,2637,,,4,499.49599999998463,timeout,,,0.51,,,,,,,,,,,,,,,,,0.49,true,343686.5999999996,343685.493,343185.989,343186.9000000004,343202.587,343702.083,,,
trial,flow.Sequence,0_11_1,2022-07-15T14:13:24.424Z,,,,,,4,2897.7119999999995,completion,,,0.51,,,,,,,,,,,,,,,,,0.49,true,343687.2000000002,343685.493,340771.231,340772.0999999996,340787.781,343702.083,,,
fixation,canvas.Screen,0_11_2_0,2022-07-15T14:13:24.922Z,,,,,,6,749.4470000000438,timeout,,,0.545,,,,,,,,,,,,,,,,,0.515,false,344185.7000000002,344185.098,343685.493,343687.5999999996,343702.083,344451.53,,,
stimulus,canvas.Screen,0_11_2_1,2022-07-15T14:13:25.741Z,,,,,,6,549.3700000003446,response,,0.545,0.545,,,https://raw.githubusercontent.com/carero2/loss-perception/main/png/0.545blue1yellowb%3D1w%3D100v%3D28.png,https://raw.githubusercontent.com/carero2/loss-perception/main/png/0.515blue1yellowb%3D1w%3D100v%3D28.png,,,,,,,,,true,f,keypress(f),0.515,0.515,false,345004.5,345000.9000000004,344185.098,344458,344451.53,345017.806,,,
choice,canvas.Screen,0_11_2_2,2022-07-15T14:13:26.738Z,,,,0.545,,6,999.0869999999995,timeout,,,0.545,,0.515,,,-9,,-12,,,,,,,,,,0.515,false,346001.5,346000.323,345001.071,345014.2000000002,345017.806,346016.893,22,,
ITI,canvas.Screen,0_11_2_3,2022-07-15T14:13:27.237Z,,,2852,,,6,499.60600000002887,timeout,,,0.545,,,,,,,,,,,,,,,,,0.515,false,346500.5999999996,346499.814,346000.323,346001.9000000004,346016.893,346516.499,,,
trial,flow.Sequence,0_11_2,2022-07-15T14:13:27.237Z,,,,,,6,2797.731000000029,completion,,,0.545,,,,,,,,,,,,,,,,,0.515,false,346501,346499.814,343685.493,343687.5,343702.083,346516.499,,,
fixation,canvas.Screen,0_11_3_0,2022-07-15T14:13:27.737Z,,,,,,4,799.369000000006,timeout,,,0.53,,,,,,,,,,,,,,,,,0.51,false,347000.7999999998,346999.554,346499.814,346501.2000000002,346516.499,347315.868,,,
stimulus,canvas.Screen,0_11_3_1,2022-07-15T14:13:28.800Z,,,,,,4,744.6319999999832,response,,0.53,0.53,,,https://raw.githubusercontent.com/carero2/loss-perception/main/png/0.53blue1yellowb%3D1w%3D100v%3D71.png,https://raw.githubusercontent.com/carero2/loss-perception/main/png/0.51blue1yellowb%3D1w%3D100v%3D71.png,,,,,,,,,true,f,keypress(f),0.51,0.51,false,348063.4000000004,348060.5,346999.554,347321.2000000002,347315.868,348081.83,,,
choice,canvas.Screen,0_11_3_2,2022-07-15T14:13:29.802Z,,,,0.53,,4,999.3040000000037,timeout,,,0.53,,0.51,,,-6,,-18,,,,,,,,,,0.51,false,349065.7000000002,349064.405,348065.221,348074.2999999998,348081.83,349081.134,16,,
ITI,canvas.Screen,0_11_3_3,2022-07-15T14:13:30.302Z,,,2580,,,4,499.42599999997765,timeout,,,0.53,,,,,,,,,,,,,,,,,0.51,false,349565.2000000002,349564.057,349064.405,349066,349081.134,349580.56,,,
