sender,sender_type,sender_id,timestamp,meta,,ITI_value,choice,consent,diff_net_value,duration,ended_on,gain_color,left,left_side,loss_color,not_choice,picture_left,picture_right,points,points1Block,points2Block,points3Block,points4Block,points5Block,points6Block,pointsBlock,responded,response,response_action,right,right_side,switch_sides,time_commit,time_end,time_render,time_run,time_show,time_switch,totalPoints,totalPoints_practice,url
welcome,html.Screen,0_0,2022-07-15T22:36:39.432Z,"{""labjs_version"":""20.2.4"",""labjs_build"":{""flavor"":""production"",""commit"":""f5b4a49f956347addd546a832a3327688c2c0fef""},""location"":""https://run.pavlovia.org/Rey/loss-perception/"",""userAgent"":""Mozilla/5.0 (Windows NT 10.0; Win64; x64) AppleWebKit/537.36 (KHTML, like Gecko) Chrome/103.0.0.0 Safari/537.36"",""platform"":""Win32"",""language"":""en-US"",""locale"":""en-US"",""timeZone"":""Europe/London"",""timezoneOffset"":-60,""screen_width"":1360,""screen_height"":768,""scroll_width"":1360,""scroll_height"":609,""window_innerWidth"":1360,""window_innerHeight"":657,""devicePixelRatio"":1}",,,,,,2061.774999952315,response,yellow,,,blue,,,,,0,0,0,0,0,0,0,,Continue,click #Continue,,,,38685.90000009537,38684.799999952316,36606.473,36613.5,36623.025,38688.298,100,100,{}
consent,html.Form,0_1,2022-07-15T22:36:44.060Z,,,,,true,,4625.102000095365,form submission,,,,,,,,,,,,,,,,,,,,,,43313.60000014305,43313.40000009537,38671.802,38686.200000047684,38688.298,43318.502,,,
ProlificID,html.Form,0_2,2022-07-15T22:36:55.424Z,,,,,,,11358.797999952316,form submission,,,,,,,,,,,,,,,,,,,,,,54677.5,54677.299999952316,43301.994,43313.799999952316,43318.502,54701.246,,,
instructions,html.Form,0_3,2022-07-15T22:37:35.648Z,,,,,,,40200.05399995232,form submission,,,,,,,,,,,,,,,,,,,,,,94901.5,94901.29999995232,54660.996,54677.700000047684,54701.246,94916.989,,,
Practice,canvas.Screen,0_4,2022-07-15T22:37:44.551Z,,,,,,,8882.310999952315,response,,,,,,,,,,,,,,,,,space,keypress(Space),,,,103805,103799.29999995232,94900.405,94901.60000014305,94916.989,103811.055,,,
fixation,canvas.Screen,0_5_0_0,2022-07-15T22:37:45.042Z,,,,,,12,499.6530000000057,timeout,,,0.53,,,,,,,,,,,,,,,,,0.47,true,104295.60000014305,104294.075,103795.292,103805.60000014305,103811.055,104310.708,,,
stimulus,canvas.Screen,0_5_0_1,2022-07-15T22:37:48.040Z,,,,,,12,2998.021000000008,timeout,,0.47,0.53,,,https://raw.githubusercontent.com/carero2/loss-perception/main/png/0.47blue1yellowb%3D1w%3D100v%3D10.png,https://raw.githubusercontent.com/carero2/loss-perception/main/png/0.53blue1yellowb%3D1w%3D100v%3D10.png,,,,,,,,,,,,0.53,0.47,true,107293.29999995232,107292.09,104294.075,104295.90000009537,104310.708,107308.729,,,
choice,canvas.Screen,0_5_0_2,2022-07-15T22:37:48.047Z,,,,0,,12,NaN,skipped,,,0.53,,0,,,0,,,,,,,0,false,timeout,,,0.47,true,107301.20000004768,107292.09,,107300.79999995232,,107308.729,,100,
timeout,canvas.Screen,0_5_0_3,2022-07-15T22:37:50.039Z,,,,,,12,1998.6959999999963,timeout,,,0.53,,,,,,,,,,,,,,,,,0.47,true,109292.29999995232,109290.775,107292.09,107303.90000009537,107308.729,109307.425,,,
ITI,canvas.Screen,0_5_0_4,2022-07-15T22:37:50.538Z,,,,,,12,499.5679999999993,timeout,,,0.53,,,,,,,,,,,,,,,,,0.47,true,109791.60000014305,109790.404,109290.775,109292.70000004768,109307.425,109806.993,,,
trial,flow.Sequence,0_5_0,2022-07-15T22:37:50.539Z,,,,,,12,5979.349000000002,completion,,,0.53,,,,,,,,,,,,,,,,,0.47,true,109792.70000004768,109790.404,103795.292,103805.5,103811.055,109806.993,,,
fixation,canvas.Screen,0_5_1_0,2022-07-15T22:37:51.038Z,,,,,,18,499.6869999999908,timeout,,,0.545,,,,,,,,,,,,,,,,,0.455,false,110291.5,110290.105,109790.404,109793.10000014305,109806.993,110306.68,,,
stimulus,canvas.Screen,0_5_1_1,2022-07-15T22:37:51.828Z,,,,,,18,771.320000000007,response,,0.545,0.545,,,https://raw.githubusercontent.com/carero2/loss-perception/main/png/0.545blue1yellowb%3D1w%3D100v%3D23.png,https://raw.githubusercontent.com/carero2/loss-perception/main/png/0.455blue1yellowb%3D1w%3D100v%3D23.png,,,,,,,,,true,f,keypress(f),0.455,0.455,false,111082,111078,110290.105,110291.90000009537,110306.68,111106.094,,,
choice,canvas.Screen,0_5_1_2,2022-07-15T22:37:53.836Z,,,,0.545,,18,1998.672000000006,timeout,,,0.545,,0.455,,,-9,,,,,,,-9,,,,,0.455,false,113089.5,113088.168,111089.614,111092.60000014305,111106.094,113104.766,,91,
timeout,canvas.Screen,0_5_1_3,2022-07-15T22:37:53.839Z,,,,,,18,NaN,skipped,,,0.545,,,,,,,,,,,,,,,,,0.455,false,113092.90000009537,113088.168,,113091.90000009537,,113104.766,,,
ITI,canvas.Screen,0_5_1_4,2022-07-15T22:37:54.336Z,,,,,,18,499.6909999999916,timeout,,,0.545,,,,,,,,,,,,,,,,,0.455,false,113589.29999995232,113587.868,113088.168,113093.10000014305,113104.766,113604.457,,,
trial,flow.Sequence,0_5_1,2022-07-15T22:37:54.336Z,,,,,,18,3780.875,completion,,,0.545,,,,,,,,,,,,,,,,,0.455,false,113590,113587.868,109790.404,109793,109806.993,113604.457,,,
fixation,canvas.Screen,0_5_2_0,2022-07-15T22:37:54.835Z,,,,,,6,499.6100000000006,timeout,,,0.485,,,,,,,,,,,,,,,,,0.455,true,114088.60000014305,114087.463,113587.868,113590.40000009537,113604.457,114104.067,,,
stimulus,canvas.Screen,0_5_2_1,2022-07-15T22:37:56.322Z,,,,,,6,1469.7329999523208,response,,0.455,0.485,,,https://raw.githubusercontent.com/carero2/loss-perception/main/png/0.455blue1yellowb%3D1w%3D100v%3D89.png,https://raw.githubusercontent.com/carero2/loss-perception/main/png/0.485blue1yellowb%3D1w%3D100v%3D89.png,,,,,,,,,true,j,keypress(j),0.485,0.455,true,115575.29999995232,115573.79999995232,114087.463,114088.90000009537,114104.067,115586.435,,,
choice,canvas.Screen,0_5_2_2,2022-07-15T22:37:58.315Z,,,,0.485,,6,1998.622000000003,timeout,,,0.485,,0.455,,,3,,,,,,,-6,,,,,0.455,true,117569.10000014305,117568.4,115569.961,115579.40000009537,115586.435,117585.057,,94,
timeout,canvas.Screen,0_5_2_3,2022-07-15T22:37:58.317Z,,,,,,6,NaN,skipped,,,0.485,,,,,,,,,,,,,,,,,0.455,true,117570.90000009537,117568.4,,117570.70000004768,,117585.057,,,
ITI,canvas.Screen,0_5_2_4,2022-07-15T22:37:58.815Z,,,,,,6,499.75100000000384,timeout,,,0.485,,,,,,,,,,,,,,,,,0.455,true,118069.20000004768,118068.167,117568.4,117571,117585.057,118084.808,,,
trial,flow.Sequence,0_5_2,2022-07-15T22:37:58.816Z,,,,,,6,4463.710000000006,completion,,,0.485,,,,,,,,,,,,,,,,,0.455,true,118069.70000004768,118068.167,113587.868,113590.20000004768,113604.457,118084.808,,,
fixation,canvas.Screen,0_5_3_0,2022-07-15T22:37:59.314Z,,,,,,9,499.525999999998,timeout,,,0.485,,,,,,,,,,,,,,,,,0.53,false,118568.10000014305,118567.68,118068.167,118070.20000004768,118084.808,118584.334,,,
stimulus,canvas.Screen,0_5_3_1,2022-07-15T22:38:00.609Z,,,,,,9,1278.1659999999974,response,,0.485,0.485,,,https://raw.githubusercontent.com/carero2/loss-perception/main/png/0.485blue1yellowb%3D1w%3D100v%3D49.png,https://raw.githubusercontent.com/carero2/loss-perception/main/png/0.53blue1yellowb%3D1w%3D100v%3D49.png,,,,,,,,,true,j,keypress(j),0.53,0.53,false,119863.10000014305,119862.5,118567.68,118568.20000004768,118584.334,119883.446,,,
choice,canvas.Screen,0_5_3_2,2022-07-15T22:38:02.613Z,,,,0.53,,9,1998.796000000002,timeout,,,0.485,,0.485,,,-6,,,,,,,-12,,,,,0.53,false,121866.79999995232,121865.585,119867.011,119867.10000014305,119883.446,121882.242,,88,
timeout,canvas.Screen,0_5_3_3,2022-07-15T22:38:02.616Z,,,,,,9,NaN,skipped,,,0.485,,,,,,,,,,,,,,,,,0.53,false,121869.5,121865.585,,121869.20000004768,,121882.242,,,
ITI,canvas.Screen,0_5_3_4,2022-07-15T22:38:03.113Z,,,,,,9,499.58699999999953,timeout,,,0.485,,,,,,,,,,,,,,,,,0.53,false,122366.10000014305,122365.174,121865.585,121869.79999995232,121882.242,122381.829,,,
trial,flow.Sequence,0_5_3,2022-07-15T22:38:03.115Z,,,,,,9,4280.3659999999945,completion,,,0.485,,,,,,,,,,,,,,,,,0.53,false,122368,122365.174,118068.167,118070,118084.808,122381.829,,,
fixation,canvas.Screen,0_5_4_0,2022-07-15T22:38:03.613Z,,,,,,6,499.69400000000314,timeout,,,0.515,,,,,,,,,,,,,,,,,0.485,false,122866.10000014305,122864.915,122365.174,122368.70000004768,122381.829,122881.523,,,
stimulus,canvas.Screen,0_5_4_1,2022-07-15T22:38:05.253Z,,,,,,6,1623.1770000476827,response,,0.515,0.515,,,https://raw.githubusercontent.com/carero2/loss-perception/main/png/0.515blue1yellowb%3D1w%3D100v%3D27.png,https://raw.githubusercontent.com/carero2/loss-perception/main/png/0.485blue1yellowb%3D1w%3D100v%3D27.png,,,,,,,,,true,j,keypress(j),0.485,0.485,false,124506.10000014305,124504.70000004768,122864.915,122866.40000009537,122881.523,124513.741,,,
choice,canvas.Screen,0_5_4_2,2022-07-15T22:38:07.244Z,,,,0.485,,6,1998.6010000000097,timeout,,,0.515,,0.515,,,3,,,,,,,-9,,,,,0.485,false,126497.29999995232,126495.757,124497.259,124511.10000014305,124513.741,126512.342,,91,
timeout,canvas.Screen,0_5_4_3,2022-07-15T22:38:07.249Z,,,,,,6,NaN,skipped,,,0.515,,,,,,,,,,,,,,,,,0.485,false,126502.60000014305,126495.757,,126501.90000009537,,126512.342,,,
ITI,canvas.Screen,0_5_4_4,2022-07-15T22:38:07.743Z,,,,,,6,499.76299999999173,timeout,,,0.515,,,,,,,,,,,,,,,,,0.485,false,126996.60000014305,126995.475,126495.757,126503.20000004768,126512.342,127012.105,,,
trial,flow.Sequence,0_5_4,2022-07-15T22:38:07.744Z,,,,,,6,4613.646000000008,completion,,,0.515,,,,,,,,,,,,,,,,,0.485,false,126997.10000014305,126995.475,122365.174,122368.40000009537,122381.829,127012.105,,,
fixation,canvas.Screen,0_5_5_0,2022-07-15T22:38:08.243Z,,,,,,6,499.6270000000077,timeout,,,0.545,,,,,,,,,,,,,,,,,0.515,false,127496.10000014305,127495.086,126995.475,126997.40000009537,127012.105,127511.732,,,
stimulus,canvas.Screen,0_5_5_1,2022-07-15T22:38:09.261Z,,,,,,6,1001.2679999999964,response,,0.545,0.545,,,https://raw.githubusercontent.com/carero2/loss-perception/main/png/0.545blue1yellowb%3D1w%3D100v%3D97.png,https://raw.githubusercontent.com/carero2/loss-perception/main/png/0.515blue1yellowb%3D1w%3D100v%3D97.png,,,,,,,,,true,j,keypress(j),0.515,0.515,false,128514.20000004768,128513,127495.086,127496.40000009537,127511.732,128527.686,,,
choice,canvas.Screen,0_5_5_2,2022-07-15T22:38:11.258Z,,,,0.515,,6,1998.653999999995,timeout,,,0.545,,0.545,,,-3,,,,,,,-12,,,,,0.515,false,130511,130509.768,128511.204,128521.70000004768,128527.686,130526.34,,88,
timeout,canvas.Screen,0_5_5_3,2022-07-15T22:38:11.260Z,,,,,,6,NaN,skipped,,,0.545,,,,,,,,,,,,,,,,,0.515,false,130513.79999995232,130509.768,,130513.5,,130526.34,,,
ITI,canvas.Screen,0_5_5_4,2022-07-15T22:38:11.757Z,,,,,,6,499.65800000001036,timeout,,,0.545,,,,,,,,,,,,,,,,,0.515,false,131010.70000004768,131009.367,130509.768,130514.10000014305,130526.34,131025.998,,,
trial,flow.Sequence,0_5_5,2022-07-15T22:38:11.758Z,,,,,,6,3997.2620000000024,completion,,,0.545,,,,,,,,,,,,,,,,,0.515,false,131011.40000009537,131009.367,126995.475,126997.29999995232,127012.105,131025.998,,,
fixation,canvas.Screen,0_5_6_0,2022-07-15T22:38:12.257Z,,,,,,6,499.6299999999901,timeout,,,0.545,,,,,,,,,,,,,,,,,0.515,false,131510.20000004768,131509.064,131009.367,131011.79999995232,131025.998,131525.628,,,
stimulus,canvas.Screen,0_5_6_1,2022-07-15T22:38:13.606Z,,,,,,6,1331.4720001430542,response,,0.545,0.545,,,https://raw.githubusercontent.com/carero2/loss-perception/main/png/0.545blue1yellowb%3D1w%3D100v%3D43.png,https://raw.githubusercontent.com/carero2/loss-perception/main/png/0.515blue1yellowb%3D1w%3D100v%3D43.png,,,,,,,,,true,j,keypress(j),0.515,0.515,false,132859.90000009537,132857.10000014305,131509.064,131510.60000014305,131525.628,132874.734,,,
choice,canvas.Screen,0_5_6_2,2022-07-15T22:38:15.605Z,,,,0.515,,6,1998.7339999999967,timeout,,,0.545,,0.545,,,-3,,,,,,,-15,,,,,0.515,false,134858,134856.805,132858.276,132866.10000014305,132874.734,134873.468,,85,
timeout,canvas.Screen,0_5_6_3,2022-07-15T22:38:15.607Z,,,,,,6,NaN,skipped,,,0.545,,,,,,,,,,,,,,,,,0.515,false,134860.79999995232,134856.805,,134860.5,,134873.468,,,
ITI,canvas.Screen,0_5_6_4,2022-07-15T22:38:16.104Z,,,,,,6,499.6700000000128,timeout,,,0.545,,,,,,,,,,,,,,,,,0.515,false,135357.5,135356.5,134856.805,134861,134873.468,135373.138,,,
trial,flow.Sequence,0_5_6,2022-07-15T22:38:16.105Z,,,,,,6,4330.501999999993,completion,,,0.545,,,,,,,,,,,,,,,,,0.515,false,135358,135356.5,131009.367,131011.60000014305,131025.998,135373.138,,,
fixation,canvas.Screen,0_5_7_0,2022-07-15T22:38:16.604Z,,,,,,6,499.6110000000044,timeout,,,0.485,,,,,,,,,,,,,,,,,0.455,false,135857.20000004768,135856.064,135356.5,135358.29999995232,135373.138,135872.749,,,
stimulus,canvas.Screen,0_5_7_1,2022-07-15T22:38:17.945Z,,,,,,6,1300.7509999999893,response,,0.485,0.485,,,https://raw.githubusercontent.com/carero2/loss-perception/main/png/0.485blue1yellowb%3D1w%3D100v%3D89.png,https://raw.githubusercontent.com/carero2/loss-perception/main/png/0.455blue1yellowb%3D1w%3D100v%3D89.png,,,,,,,,,true,f,keypress(f),0.455,0.455,false,137198.40000009537,137173.5,135856.064,135857.60000014305,135872.749,137205.194,,,
choice,canvas.Screen,0_5_7_2,2022-07-15T22:38:19.935Z,,,,0.485,,6,1998.6730000000098,timeout,,,0.485,,0.455,,,3,,,,,,,-12,,,,,0.455,false,139188.5,139187.212,137188.723,137203.20000004768,137205.194,139203.867,,88,
timeout,canvas.Screen,0_5_7_3,2022-07-15T22:38:19.938Z,,,,,,6,NaN,skipped,,,0.485,,,,,,,,,,,,,,,,,0.455,false,139191.20000004768,139187.212,,139190.79999995232,,139203.867,,,
ITI,canvas.Screen,0_5_7_4,2022-07-15T22:38:20.434Z,,,,,,6,499.63300000000163,timeout,,,0.485,,,,,,,,,,,,,,,,,0.455,false,139687.90000009537,139686.836,139187.212,139191.5,139203.867,139703.5,,,
trial,flow.Sequence,0_5_7,2022-07-15T22:38:20.435Z,,,,,,6,4313.698000000004,completion,,,0.485,,,,,,,,,,,,,,,,,0.455,false,139688.29999995232,139686.836,135356.5,135358.20000004768,135373.138,139703.5,,,
fixation,canvas.Screen,0_5_8_0,2022-07-15T22:38:20.934Z,,,,,,12,499.70000000001164,timeout,,,0.53,,,,,,,,,,,,,,,,,0.47,true,140187.60000014305,140186.533,139686.836,139688.70000004768,139703.5,140203.2,,,
stimulus,canvas.Screen,0_5_8_1,2022-07-15T22:38:22.408Z,,,,,,12,1456.5999999523046,response,,0.47,0.53,,,https://raw.githubusercontent.com/carero2/loss-perception/main/png/0.47blue1yellowb%3D1w%3D100v%3D27.png,https://raw.githubusercontent.com/carero2/loss-perception/main/png/0.53blue1yellowb%3D1w%3D100v%3D27.png,,,,,,,,,true,f,keypress(f),0.53,0.47,true,141661,141659.79999995232,140186.533,140187.79999995232,140203.2,141668.823,,,
choice,canvas.Screen,0_5_8_2,2022-07-15T22:38:24.398Z,,,,0.47,,12,1998.646000000008,timeout,,,0.53,,0.53,,,6,,,,,,,-6,,,,,0.47,true,143651.70000004768,143650.805,141652.509,141664.40000009537,141668.823,143667.469,,94,
timeout,canvas.Screen,0_5_8_3,2022-07-15T22:38:24.400Z,,,,,,12,NaN,skipped,,,0.53,,,,,,,,,,,,,,,,,0.47,true,143653.60000014305,143650.805,,143653.20000004768,,143667.469,,,
ITI,canvas.Screen,0_5_8_4,2022-07-15T22:38:24.898Z,,,,,,12,499.65200000000186,timeout,,,0.53,,,,,,,,,,,,,,,,,0.47,true,144151.10000014305,144150.493,143650.805,143653.79999995232,143667.469,144167.121,,,
trial,flow.Sequence,0_5_8,2022-07-15T22:38:24.898Z,,,,,,12,4446.992999999988,completion,,,0.53,,,,,,,,,,,,,,,,,0.47,true,144151.29999995232,144150.493,139686.836,139688.5,139703.5,144167.121,,,
fixation,canvas.Screen,0_5_9_0,2022-07-15T22:38:25.398Z,,,,,,9,499.7629999999772,timeout,,,0.485,,,,,,,,,,,,,,,,,0.53,false,144651.70000004768,144650.203,144150.493,144151.40000009537,144167.121,144666.884,,,
stimulus,canvas.Screen,0_5_9_1,2022-07-15T22:38:27.435Z,,,,,,9,2019.8160000476928,response,,0.485,0.485,,,https://raw.githubusercontent.com/carero2/loss-perception/main/png/0.485blue1yellowb%3D1w%3D100v%3D41.png,https://raw.githubusercontent.com/carero2/loss-perception/main/png/0.53blue1yellowb%3D1w%3D100v%3D41.png,,,,,,,,,true,f,keypress(f),0.53,0.53,false,146688.10000014305,146686.70000004768,144650.203,144652,144666.884,146715.387,,,
choice,canvas.Screen,0_5_9_2,2022-07-15T22:38:29.444Z,,,,0.485,,9,1998.707000000024,timeout,,,0.485,,0.53,,,3,,,,,,,-3,,,,,0.53,false,148698,148697.343,146699.141,146702.10000014305,146715.387,148714.094,,97,
timeout,canvas.Screen,0_5_9_3,2022-07-15T22:38:29.445Z,,,,,,9,NaN,skipped,,,0.485,,,,,,,,,,,,,,,,,0.53,false,148698.90000009537,148697.343,,148698.70000004768,,148714.094,,,
ITI,canvas.Screen,0_5_9_4,2022-07-15T22:38:29.945Z,,,,,,9,499.65200000000186,timeout,,,0.485,,,,,,,,,,,,,,,,,0.53,false,149198.20000004768,149197.158,148697.343,148699,148714.094,149213.746,,,
trial,flow.Sequence,0_5_9,2022-07-15T22:38:29.945Z,,,,,,9,5030.036999999982,completion,,,0.485,,,,,,,,,,,,,,,,,0.53,false,149198.70000004768,149197.158,144150.493,144151.29999995232,144167.121,149213.746,,,
fixation,canvas.Screen,0_5_10_0,2022-07-15T22:38:30.444Z,,,,,,6,499.7059999999765,timeout,,,0.515,,,,,,,,,,,,,,,,,0.485,true,149697.90000009537,149696.794,149197.158,149198.90000009537,149213.746,149713.452,,,
stimulus,canvas.Screen,0_5_10_1,2022-07-15T22:38:31.765Z,,,,,,6,1303.648000143061,response,,0.485,0.515,,,https://raw.githubusercontent.com/carero2/loss-perception/main/png/0.485blue1yellowb%3D1w%3D100v%3D97.png,https://raw.githubusercontent.com/carero2/loss-perception/main/png/0.515blue1yellowb%3D1w%3D100v%3D97.png,,,,,,,,,true,f,keypress(f),0.515,0.485,true,151018.40000009537,151017.10000014305,149696.794,149698.10000014305,149713.452,151029.118,,,
choice,canvas.Screen,0_5_10_2,2022-07-15T22:38:33.758Z,,,,0.485,,6,1998.7750000000233,timeout,,,0.515,,0.515,,,3,,,,,,,0,,,,,0.485,true,153011.5,153011.083,151012.715,151021.5,151029.118,153027.893,,100,
timeout,canvas.Screen,0_5_10_3,2022-07-15T22:38:33.759Z,,,,,,6,NaN,skipped,,,0.515,,,,,,,,,,,,,,,,,0.485,true,153012.29999995232,153011.083,,153012.10000014305,,153027.893,,,
ITI,canvas.Screen,0_5_10_4,2022-07-15T22:38:34.258Z,,,,,,6,499.51699999999255,timeout,,,0.515,,,,,,,,,,,,,,,,,0.485,true,153511.20000004768,153510.767,153011.083,153012.29999995232,153027.893,153527.41,,,
trial,flow.Sequence,0_5_10,2022-07-15T22:38:34.258Z,,,,,,6,4297.020999999979,completion,,,0.515,,,,,,,,,,,,,,,,,0.485,true,153511.20000004768,153510.767,149197.158,149198.79999995232,149213.746,153527.41,,,
fixation,canvas.Screen,0_5_11_0,2022-07-15T22:38:34.757Z,,,,,,18,499.64400000000023,timeout,,,0.545,,,,,,,,,,,,,,,,,0.455,false,154010.79999995232,154010.411,153510.767,153511.40000009537,153527.41,154027.054,,,
stimulus,canvas.Screen,0_5_11_1,2022-07-15T22:38:35.516Z,,,,,,18,741.7459999523126,response,,0.545,0.545,,,https://raw.githubusercontent.com/carero2/loss-perception/main/png/0.545blue1yellowb%3D1w%3D100v%3D95.png,https://raw.githubusercontent.com/carero2/loss-perception/main/png/0.455blue1yellowb%3D1w%3D100v%3D95.png,,,,,,,,,true,j,keypress(j),0.455,0.455,false,154769.40000009537,154768.79999995232,154010.411,154010.90000009537,154027.054,154776.548,,,
choice,canvas.Screen,0_5_11_2,2022-07-15T22:38:37.506Z,,,,0.455,,18,1998.6689999999944,timeout,,,0.545,,0.545,,,9,,,,,,,9,,,,,0.455,false,156759,156758.556,154759.993,154771.79999995232,154776.548,156775.217,,109,
timeout,canvas.Screen,0_5_11_3,2022-07-15T22:38:37.506Z,,,,,,18,NaN,skipped,,,0.545,,,,,,,,,,,,,,,,,0.455,false,156759.70000004768,156758.556,,156759.5,,156775.217,,,
ITI,canvas.Screen,0_5_11_4,2022-07-15T22:38:38.005Z,,,,,,18,499.65099999998347,timeout,,,0.545,,,,,,,,,,,,,,,,,0.455,false,157258.60000014305,157258.212,156758.556,156759.70000004768,156775.217,157274.868,,,
trial,flow.Sequence,0_5_11,2022-07-15T22:38:38.005Z,,,,,,18,3730.801999999996,completion,,,0.545,,,,,,,,,,,,,,,,,0.455,false,157258.79999995232,157258.212,153510.767,153511.29999995232,153527.41,157274.868,,,
fixation,canvas.Screen,0_5_12_0,2022-07-15T22:38:38.505Z,,,,,,6,499.67500000001746,timeout,,,0.485,,,,,,,,,,,,,,,,,0.455,true,157758.29999995232,157757.9,157258.212,157258.79999995232,157274.868,157774.543,,,
stimulus,canvas.Screen,0_5_12_1,2022-07-15T22:38:39.421Z,,,,,,6,897.1570000476786,response,,0.455,0.485,,,https://raw.githubusercontent.com/carero2/loss-perception/main/png/0.455blue1yellowb%3D1w%3D100v%3D98.png,https://raw.githubusercontent.com/carero2/loss-perception/main/png/0.485blue1yellowb%3D1w%3D100v%3D98.png,,,,,,,,,true,f,keypress(f),0.485,0.455,true,158674.40000009537,158671.70000004768,157757.9,157758.29999995232,157774.543,158690.708,,,
choice,canvas.Screen,0_5_12_2,2022-07-15T22:38:41.420Z,,,,0.455,,6,1998.6479999999865,timeout,,,0.485,,0.485,,,9,,,,,,,18,,,,,0.455,true,160673.79999995232,160672.718,158674.073,158680.70000004768,158690.708,160689.356,,118,
timeout,canvas.Screen,0_5_12_3,2022-07-15T22:38:41.423Z,,,,,,6,NaN,skipped,,,0.485,,,,,,,,,,,,,,,,,0.455,true,160676.60000014305,160672.718,,160676.20000004768,,160689.356,,,
ITI,canvas.Screen,0_5_12_4,2022-07-15T22:38:41.920Z,,,,,,6,499.71199999999953,timeout,,,0.485,,,,,,,,,,,,,,,,,0.455,true,161173.40000009537,161172.334,160672.718,160676.79999995232,160689.356,161189.068,,,
trial,flow.Sequence,0_5_12,2022-07-15T22:38:41.920Z,,,,,,6,3897.466000000015,completion,,,0.485,,,,,,,,,,,,,,,,,0.455,true,161173.79999995232,161172.334,157258.212,157258.79999995232,157274.868,161189.068,,,
fixation,canvas.Screen,0_5_13_0,2022-07-15T22:38:42.419Z,,,,,,12,499.6119999999937,timeout,,,0.53,,,,,,,,,,,,,,,,,0.47,true,161672.5,161671.931,161172.334,161174.10000014305,161189.068,161688.68,,,
stimulus,canvas.Screen,0_5_13_1,2022-07-15T22:38:43.603Z,,,,,,12,1166.2200000953744,response,,0.47,0.53,,,https://raw.githubusercontent.com/carero2/loss-perception/main/png/0.47blue1yellowb%3D1w%3D100v%3D95.png,https://raw.githubusercontent.com/carero2/loss-perception/main/png/0.53blue1yellowb%3D1w%3D100v%3D95.png,,,,,,,,,true,f,keypress(f),0.53,0.47,true,162856.10000014305,162854.90000009537,161671.931,161672.60000014305,161688.68,162871.184,,,
choice,canvas.Screen,0_5_13_2,2022-07-15T22:38:45.601Z,,,,0.47,,12,1998.625,timeout,,,0.53,,0.53,,,6,,,,,,,24,,,,,0.47,true,164854.40000009537,164853.214,162854.751,162859.40000009537,162871.184,164869.809,,124,
timeout,canvas.Screen,0_5_13_3,2022-07-15T22:38:45.603Z,,,,,,12,NaN,skipped,,,0.53,,,,,,,,,,,,,,,,,0.47,true,164856.5,164853.214,,164856.10000014305,,164869.809,,,
ITI,canvas.Screen,0_5_13_4,2022-07-15T22:38:46.100Z,,,,,,12,499.6030000000028,timeout,,,0.53,,,,,,,,,,,,,,,,,0.47,true,165353.20000004768,165352.733,164853.214,164856.70000004768,164869.809,165369.412,,,
trial,flow.Sequence,0_5_13,2022-07-15T22:38:46.100Z,,,,,,12,4163.665000000008,completion,,,0.53,,,,,,,,,,,,,,,,,0.47,true,165353.40000009537,165352.733,161172.334,161174.10000014305,161189.068,165369.412,,,
fixation,canvas.Screen,0_5_14_0,2022-07-15T22:38:46.600Z,,,,,,18,499.75499999997555,timeout,,,0.545,,,,,,,,,,,,,,,,,0.455,false,165853.60000014305,165852.532,165352.733,165353.5,165369.412,165869.167,,,
stimulus,canvas.Screen,0_5_14_1,2022-07-15T22:38:47.367Z,,,,,,18,749.7330000953807,response,,0.545,0.545,,,https://raw.githubusercontent.com/carero2/loss-perception/main/png/0.545blue1yellowb%3D1w%3D100v%3D21.png,https://raw.githubusercontent.com/carero2/loss-perception/main/png/0.455blue1yellowb%3D1w%3D100v%3D21.png,,,,,,,,,true,j,keypress(j),0.455,0.455,false,166620.29999995232,166618.90000009537,165852.532,165854.10000014305,165869.167,166635.288,,,
choice,canvas.Screen,0_5_14_2,2022-07-15T22:38:49.365Z,,,,0.455,,18,1998.6630000000005,timeout,,,0.545,,0.545,,,9,,,,,,,33,,,,,0.455,false,168618.60000014305,168617.314,166618.7,166624.29999995232,166635.288,168633.951,,133,
timeout,canvas.Screen,0_5_14_3,2022-07-15T22:38:49.368Z,,,,,,18,NaN,skipped,,,0.545,,,,,,,,,,,,,,,,,0.455,false,168621.90000009537,168617.314,,168621.5,,168633.951,,,
ITI,canvas.Screen,0_5_14_4,2022-07-15T22:38:49.865Z,,,,,,18,499.70800000001327,timeout,,,0.545,,,,,,,,,,,,,,,,,0.455,false,169117.90000009537,169116.946,168617.314,168622.10000014305,168633.951,169133.659,,,
trial,flow.Sequence,0_5_14,2022-07-15T22:38:49.865Z,,,,,,18,3747.533999999985,completion,,,0.545,,,,,,,,,,,,,,,,,0.455,false,169118.29999995232,169116.946,165352.733,165353.5,165369.412,169133.659,,,
fixation,canvas.Screen,0_5_15_0,2022-07-15T22:38:50.364Z,,,,,,6,499.6349999999802,timeout,,,0.545,,,,,,,,,,,,,,,,,0.515,false,169617.79999995232,169616.662,169116.946,169118.60000014305,169133.659,169633.294,,,
stimulus,canvas.Screen,0_5_15_1,2022-07-15T22:38:51.876Z,,,,,,6,1495.0059999523219,response,,0.545,0.545,,,https://raw.githubusercontent.com/carero2/loss-perception/main/png/0.545blue1yellowb%3D1w%3D100v%3D43.png,https://raw.githubusercontent.com/carero2/loss-perception/main/png/0.515blue1yellowb%3D1w%3D100v%3D43.png,,,,,,,,,true,j,keypress(j),0.515,0.515,false,171129.79999995232,171128.29999995232,169616.662,169618,169633.294,171148.939,,,
choice,canvas.Screen,0_5_15_2,2022-07-15T22:38:53.879Z,,,,0.515,,6,1998.6599999999744,timeout,,,0.545,,0.545,,,-3,,,,,,,30,,,,,0.515,false,173132,173130.934,171132.52,171133,171148.939,173147.599,,130,
timeout,canvas.Screen,0_5_15_3,2022-07-15T22:38:53.881Z,,,,,,6,NaN,skipped,,,0.545,,,,,,,,,,,,,,,,,0.515,false,173134.70000004768,173130.934,,173134.29999995232,,173147.599,,,
ITI,canvas.Screen,0_5_15_4,2022-07-15T22:38:54.378Z,,,,,,6,499.6160000000091,timeout,,,0.545,,,,,,,,,,,,,,,,,0.515,false,173631.70000004768,173630.613,173130.934,173134.90000009537,173147.599,173647.215,,,
trial,flow.Sequence,0_5_15,2022-07-15T22:38:54.379Z,,,,,,6,4496.953999999998,completion,,,0.545,,,,,,,,,,,,,,,,,0.515,false,173632.10000014305,173630.613,169116.946,169118.60000014305,169133.659,173647.215,,,
fixation,canvas.Screen,0_5_16_0,2022-07-15T22:38:54.878Z,,,,,,9,499.7369999999937,timeout,,,0.485,,,,,,,,,,,,,,,,,0.53,false,174131.40000009537,174130.248,173630.613,173632.40000009537,173647.215,174146.952,,,
stimulus,canvas.Screen,0_5_16_1,2022-07-15T22:38:55.849Z,,,,,,9,954.3479999523261,response,,0.485,0.485,,,https://raw.githubusercontent.com/carero2/loss-perception/main/png/0.485blue1yellowb%3D1w%3D100v%3D71.png,https://raw.githubusercontent.com/carero2/loss-perception/main/png/0.53blue1yellowb%3D1w%3D100v%3D71.png,,,,,,,,,true,f,keypress(f),0.53,0.53,false,175102.70000004768,175101.29999995232,174130.248,174131.70000004768,174146.952,175112.878,,,
choice,canvas.Screen,0_5_16_2,2022-07-15T22:38:57.843Z,,,,0.485,,9,1998.7270000000135,timeout,,,0.485,,0.53,,,3,,,,,,,33,,,,,0.53,false,177096.20000004768,177094.96,175096.406,175110.70000004768,175112.878,177111.605,,133,
timeout,canvas.Screen,0_5_16_3,2022-07-15T22:38:57.845Z,,,,,,9,NaN,skipped,,,0.485,,,,,,,,,,,,,,,,,0.53,false,177098.40000009537,177094.96,,177098.10000014305,,177111.605,,,
ITI,canvas.Screen,0_5_16_4,2022-07-15T22:38:58.342Z,,,,,,9,499.60699999998906,timeout,,,0.485,,,,,,,,,,,,,,,,,0.53,false,177595.10000014305,177594.583,177094.96,177098.60000014305,177111.605,177611.212,,,
trial,flow.Sequence,0_5_16,2022-07-15T22:38:58.342Z,,,,,,9,3947.3680000000168,completion,,,0.485,,,,,,,,,,,,,,,,,0.53,false,177595.40000009537,177594.583,173630.613,173632.29999995232,173647.215,177611.212,,,
fixation,canvas.Screen,0_5_17_0,2022-07-15T22:38:58.842Z,,,,,,6,499.76800000001094,timeout,,,0.515,,,,,,,,,,,,,,,,,0.485,false,178095.29999995232,178094.275,177594.583,177595.5,177611.212,178110.98,,,
stimulus,canvas.Screen,0_5_17_1,2022-07-15T22:38:59.788Z,,,,,,6,929.420000095357,response,,0.515,0.515,,,https://raw.githubusercontent.com/carero2/loss-perception/main/png/0.515blue1yellowb%3D1w%3D100v%3D60.png,https://raw.githubusercontent.com/carero2/loss-perception/main/png/0.485blue1yellowb%3D1w%3D100v%3D60.png,,,,,,,,,true,j,keypress(j),0.485,0.485,false,179041.79999995232,179040.40000009537,178094.275,178095.5,178110.98,179060.369,,,
choice,canvas.Screen,0_5_17_2,2022-07-15T22:39:01.790Z,,,,0.485,,6,1998.6089999999967,timeout,,,0.515,,0.515,,,3,,,,,,,36,,,,,0.485,false,181043.40000009537,181042.275,179043.774,179045.29999995232,179060.369,181058.978,,136,
timeout,canvas.Screen,0_5_17_3,2022-07-15T22:39:01.792Z,,,,,,6,NaN,skipped,,,0.515,,,,,,,,,,,,,,,,,0.485,false,181045.40000009537,181042.275,,181045.10000014305,,181058.978,,,
ITI,canvas.Screen,0_5_17_4,2022-07-15T22:39:02.290Z,,,,,,6,516.2220000000088,timeout,,,0.515,,,,,,,,,,,,,,,,,0.485,false,181542.90000009537,181541.943,181042.275,181045.70000004768,181058.978,181575.2,,,
trial,flow.Sequence,0_5_17,2022-07-15T22:39:02.290Z,,,,,,6,3930.7309999999998,completion,,,0.515,,,,,,,,,,,,,,,,,0.485,false,181543.40000009537,181541.943,177594.583,177595.40000009537,177611.212,181575.2,,,
fixation,canvas.Screen,0_5_18_0,2022-07-15T22:39:02.805Z,,,,,,12,499.6939999999886,timeout,,,0.53,,,,,,,,,,,,,,,,,0.47,true,182059.29999995232,182058.227,181541.943,181543.70000004768,181575.2,182074.894,,,
stimulus,canvas.Screen,0_5_18_1,2022-07-15T22:39:03.831Z,,,,,,12,1008.7060001430509,response,,0.47,0.53,,,https://raw.githubusercontent.com/carero2/loss-perception/main/png/0.47blue1yellowb%3D1w%3D100v%3D27.png,https://raw.githubusercontent.com/carero2/loss-perception/main/png/0.53blue1yellowb%3D1w%3D100v%3D27.png,,,,,,,,,true,f,keypress(f),0.53,0.47,true,183085.10000014305,183083.60000014305,182058.227,182059.60000014305,182074.894,183107.437,,,
choice,canvas.Screen,0_5_18_2,2022-07-15T22:39:05.836Z,,,,0.47,,12,1998.6820000000007,timeout,,,0.53,,0.53,,,6,,,,,,,42,,,,,0.47,true,185090.79999995232,185089.64,183091.085,183093.20000004768,183107.437,185106.119,,142,
timeout,canvas.Screen,0_5_18_3,2022-07-15T22:39:05.839Z,,,,,,12,NaN,skipped,,,0.53,,,,,,,,,,,,,,,,,0.47,true,185093.10000014305,185089.64,,185092.79999995232,,185106.119,,,
ITI,canvas.Screen,0_5_18_4,2022-07-15T22:39:06.336Z,,,,,,12,499.6900000000023,timeout,,,0.53,,,,,,,,,,,,,,,,,0.47,true,185590.40000009537,185589.256,185089.64,185093.29999995232,185106.119,185605.809,,,
trial,flow.Sequence,0_5_18,2022-07-15T22:39:06.337Z,,,,,,12,4014.0559999999823,completion,,,0.53,,,,,,,,,,,,,,,,,0.47,true,185590.90000009537,185589.256,181541.943,181543.60000014305,181575.2,185605.809,,,
fixation,canvas.Screen,0_5_19_0,2022-07-15T22:39:06.836Z,,,,,,9,499.66499999997905,timeout,,,0.485,,,,,,,,,,,,,,,,,0.53,true,186090,186088.834,185589.256,185591.29999995232,185605.809,186105.474,,,
stimulus,canvas.Screen,0_5_19_1,2022-07-15T22:39:07.788Z,,,,,,9,933.92600009538,response,,0.53,0.485,,,https://raw.githubusercontent.com/carero2/loss-perception/main/png/0.53blue1yellowb%3D1w%3D100v%3D12.png,https://raw.githubusercontent.com/carero2/loss-perception/main/png/0.485blue1yellowb%3D1w%3D100v%3D12.png,,,,,,,,,true,j,keypress(j),0.485,0.53,true,187042.40000009537,187039.40000009537,186088.834,186090.40000009537,186105.474,187054.817,,,
choice,canvas.Screen,0_5_19_2,2022-07-15T22:39:09.784Z,,,,0.485,,9,1998.7099999999919,timeout,,,0.485,,0.53,,,3,,,,,,,45,,,,,0.53,true,189038,189036.855,187038.343,187049,187054.817,189053.527,,145,
timeout,canvas.Screen,0_5_19_3,2022-07-15T22:39:09.787Z,,,,,,9,NaN,skipped,,,0.485,,,,,,,,,,,,,,,,,0.53,true,189041.40000009537,189036.855,,189041.10000014305,,189053.527,,,
ITI,canvas.Screen,0_5_19_4,2022-07-15T22:39:10.283Z,,,,,,9,499.58600000001024,timeout,,,0.485,,,,,,,,,,,,,,,,,0.53,true,189537.40000009537,189536.504,189036.855,189041.70000004768,189053.527,189553.113,,,
trial,flow.Sequence,0_5_19,2022-07-15T22:39:10.283Z,,,,,,9,3930.694999999978,completion,,,0.485,,,,,,,,,,,,,,,,,0.53,true,189537.79999995232,189536.504,185589.256,185591.10000014305,185605.809,189553.113,,,
fixation,canvas.Screen,0_5_20_0,2022-07-15T22:39:10.782Z,,,,,,6,499.74399999997695,timeout,,,0.545,,,,,,,,,,,,,,,,,0.515,false,190036.5,190036.083,189536.504,189538.10000014305,189553.113,190052.857,,,
stimulus,canvas.Screen,0_5_20_1,2022-07-15T22:39:11.643Z,,,,,,6,843.2430001430621,response,,0.545,0.545,,,https://raw.githubusercontent.com/carero2/loss-perception/main/png/0.545blue1yellowb%3D1w%3D100v%3D71.png,https://raw.githubusercontent.com/carero2/loss-perception/main/png/0.515blue1yellowb%3D1w%3D100v%3D71.png,,,,,,,,,true,j,keypress(j),0.515,0.515,false,190897.60000014305,190896.10000014305,190036.083,190036.60000014305,190052.857,190930.91,,,
choice,canvas.Screen,0_5_20_2,2022-07-15T22:39:13.665Z,,,,0.515,,6,2003.283999999985,timeout,,,0.545,,0.545,,,-3,,,,,,,42,,,,,0.515,false,192919,192917.782,190885.755,190901.40000009537,190930.91,192934.194,,142,
timeout,canvas.Screen,0_5_20_3,2022-07-15T22:39:13.667Z,,,,,,6,NaN,skipped,,,0.545,,,,,,,,,,,,,,,,,0.515,false,192921,192917.782,,192920.70000004768,,192934.194,,,
ITI,canvas.Screen,0_5_20_4,2022-07-15T22:39:14.164Z,,,,,,6,516.3740000000107,timeout,,,0.545,,,,,,,,,,,,,,,,,0.515,false,193418.40000009537,193417.27,192917.782,192921.29999995232,192934.194,193450.568,,,
trial,flow.Sequence,0_5_20,2022-07-15T22:39:14.164Z,,,,,,6,3864.1569999999774,completion,,,0.545,,,,,,,,,,,,,,,,,0.515,false,193418.79999995232,193417.27,189536.504,189538.10000014305,189553.113,193450.568,,,
fixation,canvas.Screen,0_5_21_0,2022-07-15T22:39:14.680Z,,,,,,6,499.5780000000086,timeout,,,0.515,,,,,,,,,,,,,,,,,0.485,true,193934.70000004768,193933.596,193417.27,193419.10000014305,193450.568,193950.146,,,
stimulus,canvas.Screen,0_5_21_1,2022-07-15T22:39:15.375Z,,,,,,6,677.6539999523084,response,,0.485,0.515,,,https://raw.githubusercontent.com/carero2/loss-perception/main/png/0.485blue1yellowb%3D1w%3D100v%3D76.png,https://raw.githubusercontent.com/carero2/loss-perception/main/png/0.515blue1yellowb%3D1w%3D100v%3D76.png,,,,,,,,,true,f,keypress(f),0.515,0.485,true,194629.29999995232,194627.79999995232,193933.596,193935.10000014305,193950.146,194649.697,,,
choice,canvas.Screen,0_5_21_2,2022-07-15T22:39:17.379Z,,,,0.485,,6,1998.6510000000126,timeout,,,0.515,,0.515,,,3,,,,,,,45,,,,,0.485,true,196633,196631.777,194633.148,194635.90000009537,194649.697,196648.348,,145,
timeout,canvas.Screen,0_5_21_3,2022-07-15T22:39:17.382Z,,,,,,6,NaN,skipped,,,0.515,,,,,,,,,,,,,,,,,0.485,true,196636.5,196631.777,,196636.20000004768,,196648.348,,,
ITI,canvas.Screen,0_5_21_4,2022-07-15T22:39:17.878Z,,,,,,6,499.5780000000086,timeout,,,0.515,,,,,,,,,,,,,,,,,0.485,true,197132.60000014305,197131.411,196631.777,196636.79999995232,196648.348,197147.926,,,
trial,flow.Sequence,0_5_21,2022-07-15T22:39:17.879Z,,,,,,6,3680.8429999999935,completion,,,0.515,,,,,,,,,,,,,,,,,0.485,true,197133.20000004768,197131.411,193417.27,193419,193450.568,197147.926,,,
fixation,canvas.Screen,0_5_22_0,2022-07-15T22:39:18.378Z,,,,,,6,499.7479999999923,timeout,,,0.485,,,,,,,,,,,,,,,,,0.455,true,197632.29999995232,197631.078,197131.411,197133.5,197147.926,197647.674,,,
stimulus,canvas.Screen,0_5_22_1,2022-07-15T22:39:19.561Z,,,,,,6,1164.826000000001,response,,0.455,0.485,,,https://raw.githubusercontent.com/carero2/loss-perception/main/png/0.455blue1yellowb%3D1w%3D100v%3D88.png,https://raw.githubusercontent.com/carero2/loss-perception/main/png/0.485blue1yellowb%3D1w%3D100v%3D88.png,,,,,,,,,true,f,keypress(f),0.485,0.455,true,198815.5,198812.5,197631.078,197632.60000014305,197647.674,198830.21,,,
choice,canvas.Screen,0_5_22_2,2022-07-15T22:39:21.559Z,,,,0.455,,6,1998.7430000000168,timeout,,,0.485,,0.485,,,9,,,,,,,54,,,,,0.455,true,200813.40000009537,200812.232,198813.697,198821.70000004768,198830.21,200828.953,,154,
timeout,canvas.Screen,0_5_22_3,2022-07-15T22:39:21.562Z,,,,,,6,NaN,skipped,,,0.485,,,,,,,,,,,,,,,,,0.455,true,200816.70000004768,200812.232,,200816.29999995232,,200828.953,,,
ITI,canvas.Screen,0_5_22_4,2022-07-15T22:39:22.059Z,,,,,,6,499.5669999999809,timeout,,,0.485,,,,,,,,,,,,,,,,,0.455,true,201313.10000014305,201311.954,200812.232,200817,200828.953,201328.52,,,
trial,flow.Sequence,0_5_22,2022-07-15T22:39:22.059Z,,,,,,6,4164.027999999991,completion,,,0.485,,,,,,,,,,,,,,,,,0.455,true,201313.70000004768,201311.954,197131.411,197133.40000009537,197147.926,201328.52,,,
fixation,canvas.Screen,0_5_23_0,2022-07-15T22:39:22.558Z,,,,,,18,499.60700000001816,timeout,,,0.545,,,,,,,,,,,,,,,,,0.455,true,201812.60000014305,201811.582,201311.954,201314.10000014305,201328.52,201828.127,,,
stimulus,canvas.Screen,0_5_23_1,2022-07-15T22:39:23.480Z,,,,,,18,903.073000047676,response,,0.455,0.545,,,https://raw.githubusercontent.com/carero2/loss-perception/main/png/0.455blue1yellowb%3D1w%3D100v%3D14.png,https://raw.githubusercontent.com/carero2/loss-perception/main/png/0.545blue1yellowb%3D1w%3D100v%3D14.png,,,,,,,,,true,f,keypress(f),0.545,0.455,true,202734,202731.20000004768,201811.582,201813,201828.127,202744.209,,,
choice,canvas.Screen,0_5_23_2,2022-07-15T22:39:25.472Z,,,,0.455,,18,1998.603999999992,timeout,,,0.545,,0.545,,,9,,,,,,,63,,,,,0.455,true,204726.60000014305,204726.155,202727.745,202740.40000009537,202744.209,204742.813,,163,
timeout,canvas.Screen,0_5_23_3,2022-07-15T22:39:25.473Z,,,,,,18,NaN,skipped,,,0.545,,,,,,,,,,,,,,,,,0.455,true,204727.70000004768,204726.155,,204727.60000014305,,204742.813,,,
ITI,canvas.Screen,0_5_23_4,2022-07-15T22:39:25.973Z,,,,,,18,499.7380000000121,timeout,,,0.545,,,,,,,,,,,,,,,,,0.455,true,205227,205225.948,204726.155,204727.79999995232,204742.813,205242.551,,,
trial,flow.Sequence,0_5_23,2022-07-15T22:39:25.973Z,,,,,,18,3897.4280000000144,completion,,,0.545,,,,,,,,,,,,,,,,,0.455,true,205227.70000004768,205225.948,201311.954,201313.90000009537,201328.52,205242.551,,,
pratice,flow.Loop,0_5,2022-07-15T22:39:25.974Z,,,,,,,101414.89300000001,completion,,,,,,,,,,,,,,,,,,,,,,205228.10000014305,205225.948,103795.292,103805.40000009537,103811.055,205242.551,,,
show amount,html.Screen,0_6,2022-07-15T22:40:52.667Z,,,,,,,86675.14900004768,response,,,,,,,,,,,,,,,,,Continue,click #Continue,,,,291920.2999999523,291917.7000000477,205225.948,205230.60000014305,205242.551,291933.937,,,
first block,canvas.Screen,0_7,2022-07-15T22:40:59.091Z,,,,,,,6409.563000000024,response,,,,,,,,,,,,,,,,,space,keypress(Space),,,,298344.7999999523,298343.5,291917.437,291920.2999999523,291933.937,298346.334,,,
fixation,canvas.Screen,0_8_0_0,2022-07-15T22:40:59.577Z,,,,,,6,716.2020000000484,timeout,,,0.545,,,,,,,,,,,,,,,,,0.515,true,298830.60000014305,298829.431,298329.995,298345.2000000477,298346.334,299062.536,,,
stimulus,canvas.Screen,0_8_0_1,2022-07-15T22:41:00.894Z,,,,,,6,1083.3640000953455,response,,0.515,0.545,,,https://raw.githubusercontent.com/carero2/loss-perception/main/png/0.515blue1yellowb%3D1w%3D100v%3D90.png,https://raw.githubusercontent.com/carero2/loss-perception/main/png/0.545blue1yellowb%3D1w%3D100v%3D90.png,,,,,,,,,true,f,keypress(f),0.545,0.515,true,300147.40000009537,300145.90000009537,298829.431,299073.2999999523,299062.536,300195.02,,,
choice,canvas.Screen,0_8_0_2,2022-07-15T22:41:01.926Z,,,,0.515,,6,999.3800000000047,timeout,,,0.545,,0.545,,,-3,-3,,,,,,,,,,,0.515,true,301179.2000000477,301177.858,300178.532,300183,300195.02,301194.4,97,,
ITI,canvas.Screen,0_8_0_3,2022-07-15T22:41:02.425Z,,,2020,,,6,499.73099999997066,timeout,,,0.545,,,,,,,,,,,,,,,,,0.515,true,301678.7000000477,301677.541,301177.858,301179.60000014305,301194.4,301694.131,,,
trial,flow.Sequence,0_8_0,2022-07-15T22:41:02.426Z,,,,,,6,3331.207000000053,completion,,,0.545,,,,,,,,,,,,,,,,,0.515,true,301679.40000009537,301677.541,298329.995,298345.10000014305,298346.334,301694.131,,,
fixation,canvas.Screen,0_8_1_0,2022-07-15T22:41:02.925Z,,,,,,2,716.2050000000163,timeout,,,0.515,,,,,,,,,,,,,,,,,0.505,false,302178.40000009537,302177.17,301677.541,301679.7999999523,301694.131,302410.336,,,
stimulus,canvas.Screen,0_8_1_1,2022-07-15T22:41:04.529Z,,,,,,2,1369.5640000953572,response,,0.515,0.515,,,https://raw.githubusercontent.com/carero2/loss-perception/main/png/0.515blue1yellowb%3D1w%3D100v%3D10.png,https://raw.githubusercontent.com/carero2/loss-perception/main/png/0.505blue1yellowb%3D1w%3D100v%3D10.png,,,,,,,,,true,f,keypress(f),0.505,0.505,false,303782.2000000477,303779.90000009537,302177.17,302427.2999999523,302410.336,303825.909,,,
choice,canvas.Screen,0_8_1_2,2022-07-15T22:41:05.556Z,,,,0.515,,2,999.4650000000256,timeout,,,0.515,,0.505,,,-3,-6,,,,,,,,,,,0.505,false,304810,304808.678,303809.444,303824.60000014305,303825.909,304825.374,94,,
ITI,canvas.Screen,0_8_1_3,2022-07-15T22:41:06.056Z,,,2744,,,2,499.57199999998556,timeout,,,0.515,,,,,,,,,,,,,,,,,0.505,false,305309.60000014305,305308.417,304808.678,304810.2999999523,304825.374,305324.946,,,
trial,flow.Sequence,0_8_1,2022-07-15T22:41:06.057Z,,,,,,2,3614.286000000022,completion,,,0.515,,,,,,,,,,,,,,,,,0.505,false,305310.2000000477,305308.417,301677.541,301679.60000014305,301694.131,305324.946,,,
fixation,canvas.Screen,0_8_2_0,2022-07-15T22:41:06.556Z,,,,,,2,682.8869999999879,timeout,,,0.495,,,,,,,,,,,,,,,,,0.485,false,305809.2999999523,305808.049,305308.417,305310.5,305324.946,306007.833,,,
stimulus,canvas.Screen,0_8_2_1,2022-07-15T22:41:08.261Z,,,,,,2,1499.5670000953833,response,,0.495,0.495,,,https://raw.githubusercontent.com/carero2/loss-perception/main/png/0.495blue1yellowb%3D1w%3D100v%3D71.png,https://raw.githubusercontent.com/carero2/loss-perception/main/png/0.485blue1yellowb%3D1w%3D100v%3D71.png,,,,,,,,,true,j,keypress(j),0.485,0.485,false,307514,307507.40000009537,305808.049,306038.5,306007.833,307556.702,,,
choice,canvas.Screen,0_8_2_2,2022-07-15T22:41:09.287Z,,,,0.485,,2,999.4400000000023,timeout,,,0.495,,0.495,,,3,-3,,,,,,,,,,,0.485,false,308540.7000000477,308539.503,307540.297,307546.90000009537,307556.702,308556.142,97,,
ITI,canvas.Screen,0_8_2_3,2022-07-15T22:41:09.787Z,,,2792,,,2,499.63199999998324,timeout,,,0.495,,,,,,,,,,,,,,,,,0.485,false,309040.2999999523,309039.183,308539.503,308541.10000014305,308556.142,309055.774,,,
trial,flow.Sequence,0_8_2,2022-07-15T22:41:09.788Z,,,,,,2,3714.237000000023,completion,,,0.495,,,,,,,,,,,,,,,,,0.485,false,309041.7000000477,309039.183,305308.417,305310.40000009537,305324.946,309055.774,,,
fixation,canvas.Screen,0_8_3_0,2022-07-15T22:41:10.286Z,,,,,,6,716.1180000000168,timeout,,,0.485,,,,,,,,,,,,,,,,,0.455,true,309539.5,309538.763,309039.183,309042.40000009537,309055.774,309771.892,,,
stimulus,canvas.Screen,0_8_3_1,2022-07-15T22:41:11.412Z,,,,,,6,890.9079999523237,response,,0.455,0.485,,,https://raw.githubusercontent.com/carero2/loss-perception/main/png/0.455blue1yellowb%3D1w%3D100v%3D99.png,https://raw.githubusercontent.com/carero2/loss-perception/main/png/0.485blue1yellowb%3D1w%3D100v%3D99.png,,,,,,,,,true,f,keypress(f),0.485,0.455,true,310665.2999999523,310662.7999999523,309538.763,309782.5,309771.892,310721.315,,,
choice,canvas.Screen,0_8_3_2,2022-07-15T22:41:12.452Z,,,,0.455,,6,999.390000000014,timeout,,,0.485,,0.485,,,9,6,,,,,,,,,,,0.455,true,311705.2999999523,311704.039,310704.825,310710.40000009537,310721.315,311720.705,106,,
ITI,canvas.Screen,0_8_3_3,2022-07-15T22:41:12.951Z,,,2719,,,6,499.7129999999888,timeout,,,0.485,,,,,,,,,,,,,,,,,0.455,true,312204.7999999523,312203.705,311704.039,311705.7000000477,311720.705,312220.418,,,
trial,flow.Sequence,0_8_3,2022-07-15T22:41:12.952Z,,,,,,6,3147.9310000000405,completion,,,0.485,,,,,,,,,,,,,,,,,0.455,true,312205.2999999523,312203.705,309039.183,309042.2000000477,309055.774,312220.418,,,
fixation,canvas.Screen,0_8_4_0,2022-07-15T22:41:13.451Z,,,,,,6,699.3829999999725,timeout,,,0.515,,,,,,,,,,,,,,,,,0.485,false,312704.60000014305,312703.371,312203.705,312205.60000014305,312220.418,312919.801,,,
stimulus,canvas.Screen,0_8_4_1,2022-07-15T22:41:14.807Z,,,,,,6,1138.9989999523386,response,,0.515,0.515,,,https://raw.githubusercontent.com/carero2/loss-perception/main/png/0.515blue1yellowb%3D1w%3D100v%3D51.png,https://raw.githubusercontent.com/carero2/loss-perception/main/png/0.485blue1yellowb%3D1w%3D100v%3D51.png,,,,,,,,,true,j,keypress(j),0.485,0.485,false,314060.10000014305,314058.7999999523,312703.371,312929.5,312919.801,314102.269,,,
choice,canvas.Screen,0_8_4_2,2022-07-15T22:41:15.833Z,,,,0.485,,6,999.4090000000433,timeout,,,0.515,,0.515,,,3,9,,,,,,,,,,,0.485,false,315086.2999999523,315085.109,314085.824,314097.7999999523,314102.269,315101.678,109,,
ITI,canvas.Screen,0_8_4_3,2022-07-15T22:41:16.332Z,,,2548,,,6,499.7579999999725,timeout,,,0.515,,,,,,,,,,,,,,,,,0.485,false,315585.7000000477,315584.686,315085.109,315086.7999999523,315101.678,315601.436,,,
trial,flow.Sequence,0_8_4,2022-07-15T22:41:16.333Z,,,,,,6,3364.267999999982,completion,,,0.515,,,,,,,,,,,,,,,,,0.485,false,315586.5,315584.686,312203.705,312205.60000014305,312220.418,315601.436,,,
fixation,canvas.Screen,0_8_5_0,2022-07-15T22:41:16.832Z,,,,,,2,716.1550000000279,timeout,,,0.505,,,,,,,,,,,,,,,,,0.495,false,316085.7000000477,316084.415,315584.686,315586.7999999523,315601.436,316317.591,,,
stimulus,canvas.Screen,0_8_5_1,2022-07-15T22:41:18.091Z,,,,,,2,1024.8090000953525,response,,0.505,0.505,,,https://raw.githubusercontent.com/carero2/loss-perception/main/png/0.505blue1yellowb%3D1w%3D100v%3D87.png,https://raw.githubusercontent.com/carero2/loss-perception/main/png/0.495blue1yellowb%3D1w%3D100v%3D87.png,,,,,,,,,true,j,keypress(j),0.495,0.495,false,317344.40000009537,317342.40000009537,316084.415,316330.2999999523,316317.591,317400.065,,,
choice,canvas.Screen,0_8_5_2,2022-07-15T22:41:19.130Z,,,,0.495,,2,999.4739999999874,timeout,,,0.505,,0.505,,,1,10,,,,,,,,,,,0.495,false,318383.60000014305,318382.765,317383.603,317394.7000000477,317400.065,318399.539,110,,
ITI,canvas.Screen,0_8_5_3,2022-07-15T22:41:19.631Z,,,2326,,,2,499.5929999999935,timeout,,,0.505,,,,,,,,,,,,,,,,,0.495,false,318884.7000000477,318882.528,318382.765,318383.7999999523,318399.539,318899.132,,,
trial,flow.Sequence,0_8_5,2022-07-15T22:41:19.632Z,,,,,,2,3281.092000000004,completion,,,0.505,,,,,,,,,,,,,,,,,0.495,false,318885.7000000477,318882.528,315584.686,315586.7000000477,315601.436,318899.132,,,
fixation,canvas.Screen,0_8_6_0,2022-07-15T22:41:20.130Z,,,,,,4,732.8260000000009,timeout,,,0.51,,,,,,,,,,,,,,,,,0.49,true,319383.40000009537,319382.166,318882.528,318886.40000009537,318899.132,319631.958,,,
stimulus,canvas.Screen,0_8_6_1,2022-07-15T22:41:21.328Z,,,,,,4,947.2420000476995,response,,0.49,0.51,,,https://raw.githubusercontent.com/carero2/loss-perception/main/png/0.49blue1yellowb%3D1w%3D100v%3D80.png,https://raw.githubusercontent.com/carero2/loss-perception/main/png/0.51blue1yellowb%3D1w%3D100v%3D80.png,,,,,,,,,true,f,keypress(f),0.51,0.49,true,320581.60000014305,320579.2000000477,319382.166,319644.7999999523,319631.958,320631.375,,,
choice,canvas.Screen,0_8_6_2,2022-07-15T22:41:22.361Z,,,,0.49,,4,999.1869999999763,timeout,,,0.51,,0.51,,,2,12,,,,,,,,,,,0.49,true,321614.7000000477,321613.941,320614.808,320617.7000000477,320631.375,321630.562,112,,
ITI,canvas.Screen,0_8_6_3,2022-07-15T22:41:22.862Z,,,2803,,,4,499.69800000003306,timeout,,,0.51,,,,,,,,,,,,,,,,,0.49,true,322115.7000000477,322113.682,321613.941,321614.7999999523,321630.562,322130.26,,,
trial,flow.Sequence,0_8_6,2022-07-15T22:41:22.863Z,,,,,,4,3214.5499999999884,completion,,,0.51,,,,,,,,,,,,,,,,,0.49,true,322116.60000014305,322113.682,318882.528,318886.2000000477,318899.132,322130.26,,,
fixation,canvas.Screen,0_8_7_0,2022-07-15T22:41:23.361Z,,,,,,4,716.2689999999711,timeout,,,0.49,,,,,,,,,,,,,,,,,0.47,false,322614.2999999523,322613.3,322113.682,322117.10000014305,322130.26,322846.529,,,
stimulus,canvas.Screen,0_8_7_1,2022-07-15T22:41:24.621Z,,,,,,4,1025.0710001430707,response,,0.49,0.49,,,https://raw.githubusercontent.com/carero2/loss-perception/main/png/0.49blue1yellowb%3D1w%3D100v%3D58.png,https://raw.githubusercontent.com/carero2/loss-perception/main/png/0.47blue1yellowb%3D1w%3D100v%3D58.png,,,,,,,,,true,j,keypress(j),0.47,0.47,false,323874.2000000477,323871.60000014305,322613.3,322860.2999999523,322846.529,323929.085,,,
choice,canvas.Screen,0_8_7_2,2022-07-15T22:41:25.660Z,,,,0.47,,4,999.2989999999991,timeout,,,0.49,,0.49,,,6,18,,,,,,,,,,,0.47,false,324913.10000014305,324911.757,323912.615,323916.40000009537,323929.085,324928.384,118,,
ITI,canvas.Screen,0_8_7_3,2022-07-15T22:41:26.159Z,,,2382,,,4,499.655999999959,timeout,,,0.49,,,,,,,,,,,,,,,,,0.47,false,325412.7000000477,325411.46,324911.757,324913.40000009537,324928.384,325428.04,,,
trial,flow.Sequence,0_8_7,2022-07-15T22:41:26.160Z,,,,,,4,3281.2000000000116,completion,,,0.49,,,,,,,,,,,,,,,,,0.47,false,325413.2000000477,325411.46,322113.682,322117,322130.26,325428.04,,,
fixation,canvas.Screen,0_8_8_0,2022-07-15T22:41:26.659Z,,,,,,4,716.2520000000368,timeout,,,0.53,,,,,,,,,,,,,,,,,0.51,true,325912.2999999523,325911.176,325411.46,325413.60000014305,325428.04,326144.292,,,
stimulus,canvas.Screen,0_8_8_1,2022-07-15T22:41:28.079Z,,,,,,4,1181.1080000953516,response,,0.51,0.53,,,https://raw.githubusercontent.com/carero2/loss-perception/main/png/0.51blue1yellowb%3D1w%3D100v%3D42.png,https://raw.githubusercontent.com/carero2/loss-perception/main/png/0.53blue1yellowb%3D1w%3D100v%3D42.png,,,,,,,,,true,f,keypress(f),0.53,0.51,true,327332.2000000477,327325.40000009537,325911.176,326158.2000000477,326144.292,327376.663,,,
choice,canvas.Screen,0_8_8_2,2022-07-15T22:41:29.107Z,,,,0.51,,4,999.3879999999772,timeout,,,0.53,,0.53,,,-2,16,,,,,,,,,,,0.51,true,328360.7000000477,328359.451,327360.196,327363.2000000477,327376.663,328376.051,116,,
ITI,canvas.Screen,0_8_8_3,2022-07-15T22:41:29.607Z,,,2807,,,4,499.67600000003586,timeout,,,0.53,,,,,,,,,,,,,,,,,0.51,true,328860.40000009537,328859.129,328359.451,328361.10000014305,328376.051,328875.727,,,
trial,flow.Sequence,0_8_8,2022-07-15T22:41:29.608Z,,,,,,4,3431.0890000000363,completion,,,0.53,,,,,,,,,,,,,,,,,0.51,true,328861.10000014305,328859.129,325411.46,325413.5,325428.04,328875.727,,,
fixation,canvas.Screen,0_8_9_0,2022-07-15T22:41:30.106Z,,,,,,2,716.1630000000005,timeout,,,0.515,,,,,,,,,,,,,,,,,0.505,false,329359.90000009537,329358.742,328859.129,328861.40000009537,328875.727,329591.89,,,
stimulus,canvas.Screen,0_8_9_1,2022-07-15T22:41:31.392Z,,,,,,2,1051.0100000953535,response,,0.515,0.515,,,https://raw.githubusercontent.com/carero2/loss-perception/main/png/0.515blue1yellowb%3D1w%3D100v%3D45.png,https://raw.githubusercontent.com/carero2/loss-perception/main/png/0.505blue1yellowb%3D1w%3D100v%3D45.png,,,,,,,,,true,f,keypress(f),0.505,0.505,false,330645.2999999523,330642.90000009537,329358.742,329608.10000014305,329591.89,330691.117,,,
choice,canvas.Screen,0_8_9_2,2022-07-15T22:41:32.422Z,,,,0.515,,2,999.4679999999935,timeout,,,0.515,,0.505,,,-3,13,,,,,,,,,,,0.505,false,331675.10000014305,331673.886,330674.758,330688.90000009537,330691.117,331690.585,113,,
ITI,canvas.Screen,0_8_9_3,2022-07-15T22:41:32.921Z,,,2102,,,2,499.5419999999576,timeout,,,0.515,,,,,,,,,,,,,,,,,0.505,false,332174.7000000477,332173.502,331673.886,331675.5,331690.585,332190.127,,,
trial,flow.Sequence,0_8_9,2022-07-15T22:41:32.922Z,,,,,,2,3297.774999999965,completion,,,0.515,,,,,,,,,,,,,,,,,0.505,false,332175.2000000477,332173.502,328859.129,328861.2999999523,328875.727,332190.127,,,
fixation,canvas.Screen,0_8_10_0,2022-07-15T22:41:33.421Z,,,,,,2,732.8850000000093,timeout,,,0.505,,,,,,,,,,,,,,,,,0.495,false,332674.40000009537,332673.22,332173.502,332175.60000014305,332190.127,332923.012,,,
stimulus,canvas.Screen,0_8_10_1,2022-07-15T22:41:34.724Z,,,,,,2,1051.7879999523284,response,,0.505,0.505,,,https://raw.githubusercontent.com/carero2/loss-perception/main/png/0.505blue1yellowb%3D1w%3D100v%3D84.png,https://raw.githubusercontent.com/carero2/loss-perception/main/png/0.495blue1yellowb%3D1w%3D100v%3D84.png,,,,,,,,,true,j,keypress(j),0.495,0.495,false,333977.7000000477,333974.7999999523,332673.22,332946.60000014305,332923.012,334022.182,,,
choice,canvas.Screen,0_8_10_2,2022-07-15T22:41:35.753Z,,,,0.495,,2,999.3870000000461,timeout,,,0.505,,0.505,,,1,14,,,,,,,,,,,0.495,false,335006.10000014305,335004.99,334005.783,334020,334022.182,335021.569,114,,
ITI,canvas.Screen,0_8_10_3,2022-07-15T22:41:36.252Z,,,2189,,,2,499.6579999999958,timeout,,,0.505,,,,,,,,,,,,,,,,,0.495,false,335505.7999999523,335504.659,335004.99,335006.60000014305,335021.569,335521.227,,,
trial,flow.Sequence,0_8_10,2022-07-15T22:41:36.253Z,,,,,,2,3314.5320000000065,completion,,,0.505,,,,,,,,,,,,,,,,,0.495,false,335506.2999999523,335504.659,332173.502,332175.5,332190.127,335521.227,,,
fixation,canvas.Screen,0_8_11_0,2022-07-15T22:41:36.751Z,,,,,,4,749.5849999999627,timeout,,,0.51,,,,,,,,,,,,,,,,,0.49,true,336004.60000014305,336004.155,335504.659,335506.7999999523,335521.227,336270.812,,,
stimulus,canvas.Screen,0_8_11_1,2022-07-15T22:41:38.131Z,,,,,,4,1111.288000143075,response,,0.49,0.51,,,https://raw.githubusercontent.com/carero2/loss-perception/main/png/0.49blue1yellowb%3D1w%3D100v%3D34.png,https://raw.githubusercontent.com/carero2/loss-perception/main/png/0.51blue1yellowb%3D1w%3D100v%3D34.png,,,,,,,,,true,f,keypress(f),0.51,0.49,true,337384.40000009537,337382.10000014305,336004.155,336291.7000000477,336270.812,337436.64,,,
choice,canvas.Screen,0_8_11_2,2022-07-15T22:41:39.167Z,,,,0.49,,4,999.3740000000107,timeout,,,0.51,,0.51,,,2,16,,,,,,,,,,,0.49,true,338420.60000014305,338419.332,337420.179,337425,337436.64,338436.014,116,,
ITI,canvas.Screen,0_8_11_3,2022-07-15T22:41:39.668Z,,,2059,,,4,499.5879999999888,timeout,,,0.51,,,,,,,,,,,,,,,,,0.49,true,338921,338918.994,338419.332,338420.90000009537,338436.014,338935.602,,,
trial,flow.Sequence,0_8_11,2022-07-15T22:41:39.668Z,,,,,,4,3397.7669999999925,completion,,,0.51,,,,,,,,,,,,,,,,,0.49,true,338922,338918.994,335504.659,335506.7000000477,335521.227,338935.602,,,
fixation,canvas.Screen,0_8_12_0,2022-07-15T22:41:40.166Z,,,,,,6,766.2149999999674,timeout,,,0.485,,,,,,,,,,,,,,,,,0.455,true,339419.90000009537,339418.668,338918.994,338922.5,338935.602,339701.817,,,
stimulus,canvas.Screen,0_8_12_1,2022-07-15T22:41:41.939Z,,,,,,6,1489.2830001430702,response,,0.455,0.485,,,https://raw.githubusercontent.com/carero2/loss-perception/main/png/0.455blue1yellowb%3D1w%3D100v%3D58.png,https://raw.githubusercontent.com/carero2/loss-perception/main/png/0.485blue1yellowb%3D1w%3D100v%3D58.png,,,,,,,,,true,f,keypress(f),0.485,0.455,true,341192.5,341191.10000014305,339418.668,339732.2000000477,339701.817,341250.64,,,
choice,canvas.Screen,0_8_12_2,2022-07-15T22:41:42.981Z,,,,0.455,,6,999.4789999999921,timeout,,,0.485,,0.485,,,9,25,,,,,,,,,,,0.455,true,342234.60000014305,342233.405,341234.206,341234.7000000477,341250.64,342250.119,125,,
ITI,canvas.Screen,0_8_12_3,2022-07-15T22:41:43.481Z,,,2243,,,6,499.5580000000191,timeout,,,0.485,,,,,,,,,,,,,,,,,0.455,true,342734.2999999523,342733.127,342233.405,342235,342250.119,342749.677,,,
trial,flow.Sequence,0_8_12,2022-07-15T22:41:43.481Z,,,,,,6,3797.524999999965,completion,,,0.485,,,,,,,,,,,,,,,,,0.455,true,342734.7999999523,342733.127,338918.994,338922.40000009537,338935.602,342749.677,,,
fixation,canvas.Screen,0_8_13_0,2022-07-15T22:41:43.980Z,,,,,,4,749.4349999999977,timeout,,,0.49,,,,,,,,,,,,,,,,,0.47,true,343233.7999999523,343232.709,342733.127,342735.10000014305,342749.677,343499.112,,,
stimulus,canvas.Screen,0_8_13_1,2022-07-15T22:41:45.407Z,,,,,,4,1160.1879999522935,response,,0.47,0.49,,,https://raw.githubusercontent.com/carero2/loss-perception/main/png/0.47blue1yellowb%3D1w%3D100v%3D74.png,https://raw.githubusercontent.com/carero2/loss-perception/main/png/0.49blue1yellowb%3D1w%3D100v%3D74.png,,,,,,,,,true,f,keypress(f),0.49,0.47,true,344660.7000000477,344659.2999999523,343232.709,343512.7000000477,343499.112,344714.965,,,
choice,canvas.Screen,0_8_13_2,2022-07-15T22:41:46.446Z,,,,0.47,,4,999.3640000000014,timeout,,,0.49,,0.49,,,6,31,,,,,,,,,,,0.47,true,345700,345697.768,344681.829,344698.10000014305,344714.965,345714.329,131,,
ITI,canvas.Screen,0_8_13_3,2022-07-15T22:41:46.945Z,,,2287,,,4,499.66300000000047,timeout,,,0.49,,,,,,,,,,,,,,,,,0.47,true,346198.60000014305,346197.409,345697.768,345700.60000014305,345714.329,346213.992,,,
trial,flow.Sequence,0_8_13,2022-07-15T22:41:46.946Z,,,,,,4,3447.73199999996,completion,,,0.49,,,,,,,,,,,,,,,,,0.47,true,346199.10000014305,346197.409,342733.127,342735,342749.677,346213.992,,,
fixation,canvas.Screen,0_8_14_0,2022-07-15T22:41:47.444Z,,,,,,4,716.2849999999744,timeout,,,0.53,,,,,,,,,,,,,,,,,0.51,true,346697.40000009537,346696.952,346197.409,346199.40000009537,346213.992,346930.277,,,
stimulus,canvas.Screen,0_8_14_1,2022-07-15T22:41:48.738Z,,,,,,4,1059.9230000476819,response,,0.51,0.53,,,https://raw.githubusercontent.com/carero2/loss-perception/main/png/0.51blue1yellowb%3D1w%3D100v%3D52.png,https://raw.githubusercontent.com/carero2/loss-perception/main/png/0.53blue1yellowb%3D1w%3D100v%3D52.png,,,,,,,,,true,f,keypress(f),0.53,0.51,true,347991.7000000477,347990.2000000477,346696.952,346954.10000014305,346930.277,348046.039,,,
choice,canvas.Screen,0_8_14_2,2022-07-15T22:41:49.777Z,,,,0.51,,4,999.4579999999842,timeout,,,0.53,,0.53,,,-2,29,,,,,,,,,,,0.51,true,349030,349028.841,348029.643,348032,348046.039,349045.497,129,,
ITI,canvas.Screen,0_8_14_3,2022-07-15T22:41:50.276Z,,,2628,,,4,499.5780000000377,timeout,,,0.53,,,,,,,,,,,,,,,,,0.51,true,349529.60000014305,349528.535,349028.841,349030.5,349045.497,349545.075,,,
trial,flow.Sequence,0_8_14,2022-07-15T22:41:50.278Z,,,,,,4,3314.542999999947,completion,,,0.53,,,,,,,,,,,,,,,,,0.51,true,349531,349528.535,346197.409,346199.2999999523,346213.992,349545.075,,,
fixation,canvas.Screen,0_8_15_0,2022-07-15T22:41:50.775Z,,,,,,6,716.2689999999711,timeout,,,0.515,,,,,,,,,,,,,,,,,0.485,false,350028.5,350028.041,349528.535,349531.7000000477,349545.075,350261.344,,,
stimulus,canvas.Screen,0_8_15_1,2022-07-15T22:41:52.491Z,,,,,,6,1481.356000047701,response,,0.515,0.515,,,https://raw.githubusercontent.com/carero2/loss-perception/main/png/0.515blue1yellowb%3D1w%3D100v%3D87.png,https://raw.githubusercontent.com/carero2/loss-perception/main/png/0.485blue1yellowb%3D1w%3D100v%3D87.png,,,,,,,,,true,f,keypress(f),0.485,0.485,false,351744.10000014305,351742.7000000477,350028.041,350285.2000000477,350261.344,351793.51,,,
choice,canvas.Screen,0_8_15_2,2022-07-15T22:41:53.523Z,,,,0.515,,6,999.4130000000005,timeout,,,0.515,,0.485,,,-3,26,,,,,,,,,,,0.485,false,352776.7000000477,352776.194,351777.109,351778.60000014305,351793.51,352792.923,126,,
ITI,canvas.Screen,0_8_15_3,2022-07-15T22:41:54.024Z,,,2213,,,6,499.62799999996787,timeout,,,0.515,,,,,,,,,,,,,,,,,0.485,false,353277.10000014305,353275.927,352776.194,352776.7999999523,352792.923,353292.551,,,
trial,flow.Sequence,0_8_15,2022-07-15T22:41:54.024Z,,,,,,6,3730.8520000000135,completion,,,0.515,,,,,,,,,,,,,,,,,0.485,false,353277.7999999523,353275.927,349528.535,349531.40000009537,349545.075,353292.551,,,
fixation,canvas.Screen,0_8_16_0,2022-07-15T22:41:54.523Z,,,,,,6,716.2250000000349,timeout,,,0.545,,,,,,,,,,,,,,,,,0.515,true,353776.5,353775.586,353275.927,353278.2000000477,353292.551,354008.776,,,
stimulus,canvas.Screen,0_8_16_1,2022-07-15T22:41:55.802Z,,,,,,6,1044.9240000476711,response,,0.515,0.545,,,https://raw.githubusercontent.com/carero2/loss-perception/main/png/0.515blue1yellowb%3D1w%3D100v%3D74.png,https://raw.githubusercontent.com/carero2/loss-perception/main/png/0.545blue1yellowb%3D1w%3D100v%3D74.png,,,,,,,,,true,f,keypress(f),0.545,0.515,true,355055.7000000477,355053.7000000477,353775.586,354023.60000014305,354008.776,355107.933,,,
choice,canvas.Screen,0_8_16_2,2022-07-15T22:41:56.839Z,,,,0.515,,6,999.4009999999544,timeout,,,0.545,,0.545,,,-3,23,,,,,,,,,,,0.515,true,356092.7999999523,356090.737,355091.506,355104.2000000477,355107.933,356107.334,123,,
ITI,canvas.Screen,0_8_16_3,2022-07-15T22:41:57.338Z,,,2176,,,6,499.62100000004284,timeout,,,0.545,,,,,,,,,,,,,,,,,0.515,true,356591.2000000477,356590.407,356090.737,356093.5,356107.334,356606.955,,,
trial,flow.Sequence,0_8_16,2022-07-15T22:41:57.338Z,,,,,,6,3297.856000000029,completion,,,0.545,,,,,,,,,,,,,,,,,0.515,true,356591.5,356590.407,353275.927,353278.10000014305,353292.551,356606.955,,,
fixation,canvas.Screen,0_8_17_0,2022-07-15T22:41:57.838Z,,,,,,2,716.3449999999721,timeout,,,0.495,,,,,,,,,,,,,,,,,0.485,false,357091.2000000477,357090.069,356590.407,356591.7000000477,356606.955,357323.3,,,
stimulus,canvas.Screen,0_8_17_1,2022-07-15T22:41:59.106Z,,,,,,2,1034.7000000000116,response,,0.495,0.495,,,https://raw.githubusercontent.com/carero2/loss-perception/main/png/0.495blue1yellowb%3D1w%3D100v%3D14.png,https://raw.githubusercontent.com/carero2/loss-perception/main/png/0.485blue1yellowb%3D1w%3D100v%3D14.png,,,,,,,,,true,j,keypress(j),0.485,0.485,false,358359.5,358358,357090.069,357346.7000000477,357323.3,358405.726,,,
choice,canvas.Screen,0_8_17_2,2022-07-15T22:42:00.135Z,,,,0.485,,2,999.3389999999781,timeout,,,0.495,,0.495,,,3,26,,,,,,,,,,,0.485,false,359388.90000009537,359388.391,358389.242,358404.40000009537,358405.726,359405.065,126,,
ITI,canvas.Screen,0_8_17_3,2022-07-15T22:42:00.636Z,,,2107,,,2,499.67399999999907,timeout,,,0.495,,,,,,,,,,,,,,,,,0.485,false,359889.2000000477,359888.128,359388.391,359389,359405.065,359904.739,,,
trial,flow.Sequence,0_8_17,2022-07-15T22:42:00.637Z,,,,,,2,3281.17300000001,completion,,,0.495,,,,,,,,,,,,,,,,,0.485,false,359889.90000009537,359888.128,356590.407,356591.60000014305,356606.955,359904.739,,,
fixation,canvas.Screen,0_8_18_0,2022-07-15T22:42:01.136Z,,,,,,6,749.5420000000158,timeout,,,0.515,,,,,,,,,,,,,,,,,0.485,true,360389,360387.83,359888.128,359890.2999999523,359904.739,360654.281,,,
stimulus,canvas.Screen,0_8_18_1,2022-07-15T22:42:02.772Z,,,,,,6,1365.4190000476665,response,,0.485,0.515,,,https://raw.githubusercontent.com/carero2/loss-perception/main/png/0.485blue1yellowb%3D1w%3D100v%3D67.png,https://raw.githubusercontent.com/carero2/loss-perception/main/png/0.515blue1yellowb%3D1w%3D100v%3D67.png,,,,,,,,,true,f,keypress(f),0.515,0.485,true,362025.7000000477,362019.7000000477,360387.83,360679.2000000477,360654.281,362069.907,,,
choice,canvas.Screen,0_8_18_2,2022-07-15T22:42:03.801Z,,,,0.485,,6,999.3740000000107,timeout,,,0.515,,0.515,,,3,29,,,,,,,,,,,0.485,true,363053.90000009537,363052.658,362053.463,362067.7000000477,362069.907,363069.281,129,,
ITI,canvas.Screen,0_8_18_3,2022-07-15T22:42:04.300Z,,,2419,,,6,499.6579999999958,timeout,,,0.515,,,,,,,,,,,,,,,,,0.485,true,363553.5,363552.343,363052.658,363054.2999999523,363069.281,363568.939,,,
trial,flow.Sequence,0_8_18,2022-07-15T22:42:04.301Z,,,,,,6,3647.603999999992,completion,,,0.515,,,,,,,,,,,,,,,,,0.485,true,363554.2000000477,363552.343,359888.128,359890.2000000477,359904.739,363568.939,,,
fixation,canvas.Screen,0_8_19_0,2022-07-15T22:42:04.800Z,,,,,,6,716.2449999999953,timeout,,,0.485,,,,,,,,,,,,,,,,,0.455,true,364053.10000014305,364052.016,363552.343,363554.5,363568.939,364285.184,,,
stimulus,canvas.Screen,0_8_19_1,2022-07-15T22:42:06.324Z,,,,,,6,1290.5160000476753,response,,0.455,0.485,,,https://raw.githubusercontent.com/carero2/loss-perception/main/png/0.455blue1yellowb%3D1w%3D100v%3D9.png,https://raw.githubusercontent.com/carero2/loss-perception/main/png/0.485blue1yellowb%3D1w%3D100v%3D9.png,,,,,,,,,true,j,keypress(j),0.485,0.455,true,365577.40000009537,365575.7000000477,364052.016,364298.2000000477,364285.184,365643.268,,,
choice,canvas.Screen,0_8_19_2,2022-07-15T22:42:07.381Z,,,,0.485,,6,1007.0270000000019,timeout,,,0.485,,0.455,,,3,32,,,,,,,,,,,0.455,true,366634.7999999523,366633.633,365601.065,365616.40000009537,365643.268,366650.295,132,,
ITI,canvas.Screen,0_8_19_3,2022-07-15T22:42:07.882Z,,,2461,,,6,499.57600000000093,timeout,,,0.485,,,,,,,,,,,,,,,,,0.455,true,367135.40000009537,367133.304,366633.633,366635.2999999523,366650.295,367149.871,,,
trial,flow.Sequence,0_8_19,2022-07-15T22:42:07.883Z,,,,,,6,3564.3649999999907,completion,,,0.485,,,,,,,,,,,,,,,,,0.455,true,367136.2999999523,367133.304,363552.343,363554.40000009537,363568.939,367149.871,,,
fixation,canvas.Screen,0_8_20_0,2022-07-15T22:42:08.381Z,,,,,,6,716.1280000000261,timeout,,,0.545,,,,,,,,,,,,,,,,,0.515,true,367634.2000000477,367632.978,367133.304,367136.90000009537,367149.871,367865.999,,,
stimulus,canvas.Screen,0_8_20_1,2022-07-15T22:42:09.942Z,,,,,,6,1328.5009999999893,response,,0.515,0.545,,,https://raw.githubusercontent.com/carero2/loss-perception/main/png/0.515blue1yellowb%3D1w%3D100v%3D62.png,https://raw.githubusercontent.com/carero2/loss-perception/main/png/0.545blue1yellowb%3D1w%3D100v%3D62.png,,,,,,,,,true,f,keypress(f),0.545,0.515,true,369195.7999999523,369194.5,367632.978,367877.10000014305,367865.999,369248.367,,,
choice,canvas.Screen,0_8_20_2,2022-07-15T22:42:10.979Z,,,,0.515,,6,999.4049999999697,timeout,,,0.545,,0.545,,,-3,29,,,,,,,,,,,0.515,true,370232.40000009537,370231.177,369231.964,369236.7999999523,369248.367,370247.772,129,,
ITI,canvas.Screen,0_8_20_3,2022-07-15T22:42:11.479Z,,,2227,,,6,499.67399999999907,timeout,,,0.545,,,,,,,,,,,,,,,,,0.515,true,370732,370730.872,370231.177,370232.90000009537,370247.772,370747.446,,,
trial,flow.Sequence,0_8_20,2022-07-15T22:42:11.479Z,,,,,,6,3581.0009999999893,completion,,,0.545,,,,,,,,,,,,,,,,,0.515,true,370732.7000000477,370730.872,367133.304,367136.7000000477,367149.871,370747.446,,,
fixation,canvas.Screen,0_8_21_0,2022-07-15T22:42:11.978Z,,,,,,4,732.8570000000182,timeout,,,0.53,,,,,,,,,,,,,,,,,0.51,true,371231.7000000477,371230.487,370730.872,370733.10000014305,370747.446,371480.303,,,
stimulus,canvas.Screen,0_8_21_1,2022-07-15T22:42:13.599Z,,,,,,4,1370.6969999999856,response,,0.51,0.53,,,https://raw.githubusercontent.com/carero2/loss-perception/main/png/0.51blue1yellowb%3D1w%3D100v%3D43.png,https://raw.githubusercontent.com/carero2/loss-perception/main/png/0.53blue1yellowb%3D1w%3D100v%3D43.png,,,,,,,,,true,f,keypress(f),0.53,0.51,true,372852.7000000477,372851,371230.487,371490.90000009537,371480.303,372912.663,,,
choice,canvas.Screen,0_8_21_2,2022-07-15T22:42:14.643Z,,,,0.51,,4,999.2880000000005,timeout,,,0.53,,0.53,,,-2,27,,,,,,,,,,,0.51,true,373896.60000014305,373895.38,372896.154,372896.90000009537,372912.663,373911.951,127,,
ITI,canvas.Screen,0_8_21_3,2022-07-15T22:42:15.142Z,,,2872,,,4,499.66399999998976,timeout,,,0.53,,,,,,,,,,,,,,,,,0.51,true,374395.7000000477,374395.002,373895.38,373897,373911.951,374411.615,,,
trial,flow.Sequence,0_8_21,2022-07-15T22:42:15.143Z,,,,,,4,3647.5559999999823,completion,,,0.53,,,,,,,,,,,,,,,,,0.51,true,374396,374395.002,370730.872,370732.90000009537,370747.446,374411.615,,,
fixation,canvas.Screen,0_8_22_0,2022-07-15T22:42:15.642Z,,,,,,4,716.2630000000354,timeout,,,0.49,,,,,,,,,,,,,,,,,0.47,true,374895.7999999523,374894.674,374395.002,374396.10000014305,374411.615,375127.878,,,
stimulus,canvas.Screen,0_8_22_1,2022-07-15T22:42:17.383Z,,,,,,4,1506.222000143025,response,,0.47,0.49,,,https://raw.githubusercontent.com/carero2/loss-perception/main/png/0.47blue1yellowb%3D1w%3D100v%3D18.png,https://raw.githubusercontent.com/carero2/loss-perception/main/png/0.49blue1yellowb%3D1w%3D100v%3D18.png,,,,,,,,,true,f,keypress(f),0.49,0.47,true,376635.90000009537,376634.10000014305,374894.674,375144.7000000477,375127.878,376693.366,,,
choice,canvas.Screen,0_8_22_2,2022-07-15T22:42:18.424Z,,,,0.47,,4,999.3740000000107,timeout,,,0.49,,0.49,,,6,33,,,,,,,,,,,0.47,true,377677.2999999523,377676.106,376676.974,376678.40000009537,376693.366,377692.74,133,,
ITI,canvas.Screen,0_8_22_3,2022-07-15T22:42:18.923Z,,,2673,,,4,499.73200000001816,timeout,,,0.49,,,,,,,,,,,,,,,,,0.47,true,378176.60000014305,378175.737,377676.106,377677.7000000477,377692.74,378192.472,,,
trial,flow.Sequence,0_8_22,2022-07-15T22:42:18.924Z,,,,,,4,3764.122000000032,completion,,,0.49,,,,,,,,,,,,,,,,,0.47,true,378177.2999999523,378175.737,374395.002,374396.10000014305,374411.615,378192.472,,,
fixation,canvas.Screen,0_8_23_0,2022-07-15T22:42:19.423Z,,,,,,2,766.1350000000093,timeout,,,0.515,,,,,,,,,,,,,,,,,0.505,true,378676.5,378675.498,378175.737,378177.60000014305,378192.472,378958.607,,,
stimulus,canvas.Screen,0_8_23_1,2022-07-15T22:42:20.976Z,,,,,,2,1268.2930000953493,response,,0.505,0.515,,,https://raw.githubusercontent.com/carero2/loss-perception/main/png/0.505blue1yellowb%3D1w%3D100v%3D40.png,https://raw.githubusercontent.com/carero2/loss-perception/main/png/0.515blue1yellowb%3D1w%3D100v%3D40.png,,,,,,,,,true,f,keypress(f),0.515,0.505,true,380229.2999999523,380226.90000009537,378675.498,378985,378958.607,380290.94,,,
choice,canvas.Screen,0_8_23_2,2022-07-15T22:42:22.021Z,,,,0.505,,2,999.3589999999967,timeout,,,0.515,,0.515,,,-1,32,,,,,,,,,,,0.505,true,381274.90000009537,381273.682,380274.548,380276,380290.94,381290.299,132,,
ITI,canvas.Screen,0_8_23_3,2022-07-15T22:42:22.521Z,,,2470,,,2,499.75,timeout,,,0.515,,,,,,,,,,,,,,,,,0.505,true,381774.5,381773.368,381273.682,381275.2999999523,381290.299,381790.049,,,
trial,flow.Sequence,0_8_23,2022-07-15T22:42:22.522Z,,,,,,2,3580.896000000008,completion,,,0.515,,,,,,,,,,,,,,,,,0.505,true,381775.2000000477,381773.368,378175.737,378177.60000014305,378192.472,381790.049,,,
fixation,canvas.Screen,0_8_24_0,2022-07-15T22:42:23.021Z,,,,,,2,782.7810000000172,timeout,,,0.505,,,,,,,,,,,,,,,,,0.495,false,382274.10000014305,382273.03,381773.368,381775.60000014305,381790.049,382572.83,,,
stimulus,canvas.Screen,0_8_24_1,2022-07-15T22:42:25.352Z,,,,,,2,2026.9699999523,response,,0.505,0.505,,,https://raw.githubusercontent.com/carero2/loss-perception/main/png/0.505blue1yellowb%3D1w%3D100v%3D53.png,https://raw.githubusercontent.com/carero2/loss-perception/main/png/0.495blue1yellowb%3D1w%3D100v%3D53.png,,,,,,,,,true,f,keypress(f),0.495,0.495,false,384605.7999999523,384599.7999999523,382273.03,382600.60000014305,382572.83,384654.63,,,
choice,canvas.Screen,0_8_24_2,2022-07-15T22:42:26.385Z,,,,0.505,,2,999.4729999999981,timeout,,,0.505,,0.495,,,-1,31,,,,,,,,,,,0.495,false,385638.2000000477,385637.441,384638.386,384650.90000009537,384654.63,385654.103,131,,
ITI,canvas.Screen,0_8_24_3,2022-07-15T22:42:26.886Z,,,2707,,,2,499.6030000000028,timeout,,,0.505,,,,,,,,,,,,,,,,,0.495,false,386139.2000000477,386137.112,385637.441,385638.5,385654.103,386153.706,,,
trial,flow.Sequence,0_8_24,2022-07-15T22:42:26.887Z,,,,,,2,4347.063000000024,completion,,,0.505,,,,,,,,,,,,,,,,,0.495,false,386140.10000014305,386137.112,381773.368,381775.40000009537,381790.049,386153.706,,,
fixation,canvas.Screen,0_8_25_0,2022-07-15T22:42:27.385Z,,,,,,4,699.5690000000177,timeout,,,0.51,,,,,,,,,,,,,,,,,0.49,true,386637.90000009537,386636.814,386137.112,386140.7999999523,386153.706,386853.275,,,
stimulus,canvas.Screen,0_8_25_1,2022-07-15T22:42:28.991Z,,,,,,4,1389.3250001430279,response,,0.49,0.51,,,https://raw.githubusercontent.com/carero2/loss-perception/main/png/0.49blue1yellowb%3D1w%3D100v%3D40.png,https://raw.githubusercontent.com/carero2/loss-perception/main/png/0.51blue1yellowb%3D1w%3D100v%3D40.png,,,,,,,,,true,f,keypress(f),0.51,0.49,true,388244.10000014305,388242.60000014305,386636.814,386872.2000000477,386853.275,388302.228,,,
choice,canvas.Screen,0_8_25_2,2022-07-15T22:42:30.033Z,,,,0.49,,4,999.3520000000135,timeout,,,0.51,,0.51,,,2,33,,,,,,,,,,,0.49,true,389286.2000000477,389284.999,388285.759,388285.7000000477,388302.228,389301.58,133,,
ITI,canvas.Screen,0_8_25_3,2022-07-15T22:42:30.532Z,,,2258,,,4,499.7579999999725,timeout,,,0.51,,,,,,,,,,,,,,,,,0.49,true,389785.7999999523,389784.661,389284.999,389286.7000000477,389301.58,389801.338,,,
trial,flow.Sequence,0_8_25,2022-07-15T22:42:30.533Z,,,,,,4,3630.9550000000163,completion,,,0.51,,,,,,,,,,,,,,,,,0.49,true,389786.5,389784.661,386137.112,386140.60000014305,386153.706,389801.338,,,
fixation,canvas.Screen,0_8_26_0,2022-07-15T22:42:31.032Z,,,,,,2,716.1030000000028,timeout,,,0.495,,,,,,,,,,,,,,,,,0.485,false,390285.2999999523,390284.302,389784.661,389786.90000009537,389801.338,390517.441,,,
stimulus,canvas.Screen,0_8_26_1,2022-07-15T22:42:32.862Z,,,,,,2,1595.3589999523247,response,,0.495,0.495,,,https://raw.githubusercontent.com/carero2/loss-perception/main/png/0.495blue1yellowb%3D1w%3D100v%3D80.png,https://raw.githubusercontent.com/carero2/loss-perception/main/png/0.485blue1yellowb%3D1w%3D100v%3D80.png,,,,,,,,,true,f,keypress(f),0.485,0.485,false,392115,392112.7999999523,390284.302,390530.7999999523,390517.441,392132.906,,,
choice,canvas.Screen,0_8_26_2,2022-07-15T22:42:33.863Z,,,,0.495,,2,999.4649999999674,timeout,,,0.495,,0.485,,,1,34,,,,,,,,,,,0.485,false,393116.2999999523,393115.681,392116.535,392129.5,392132.906,393132.371,134,,
ITI,canvas.Screen,0_8_26_3,2022-07-15T22:42:34.363Z,,,2342,,,2,499.70100000000093,timeout,,,0.495,,,,,,,,,,,,,,,,,0.485,false,393616.7000000477,393615.383,393115.681,393116.5,393132.371,393632.072,,,
trial,flow.Sequence,0_8_26,2022-07-15T22:42:34.364Z,,,,,,2,3814.0449999999837,completion,,,0.495,,,,,,,,,,,,,,,,,0.485,false,393617.2999999523,393615.383,389784.661,389786.7999999523,389801.338,393632.072,,,
fixation,canvas.Screen,0_8_27_0,2022-07-15T22:42:34.863Z,,,,,,2,699.5009999999893,timeout,,,0.495,,,,,,,,,,,,,,,,,0.485,false,394116.2000000477,394115.065,393615.383,393617.7000000477,393632.072,394331.573,,,
stimulus,canvas.Screen,0_8_27_1,2022-07-15T22:42:36.044Z,,,,,,2,963.8270000953926,response,,0.495,0.495,,,https://raw.githubusercontent.com/carero2/loss-perception/main/png/0.495blue1yellowb%3D1w%3D100v%3D13.png,https://raw.githubusercontent.com/carero2/loss-perception/main/png/0.485blue1yellowb%3D1w%3D100v%3D13.png,,,,,,,,,true,j,keypress(j),0.485,0.485,false,395297.40000009537,395295.40000009537,394115.065,394360.5,394331.573,395347.442,,,
choice,canvas.Screen,0_8_27_2,2022-07-15T22:42:37.078Z,,,,0.485,,2,999.4660000000149,timeout,,,0.495,,0.495,,,3,37,,,,,,,,,,,0.485,false,396331.40000009537,396330.224,395330.92,395335.7000000477,395347.442,396346.908,137,,
ITI,canvas.Screen,0_8_27_3,2022-07-15T22:42:37.578Z,,,2905,,,2,499.60999999998603,timeout,,,0.495,,,,,,,,,,,,,,,,,0.485,false,396831.10000014305,396829.892,396330.224,396331.7999999523,396346.908,396846.518,,,
trial,flow.Sequence,0_8_27,2022-07-15T22:42:37.578Z,,,,,,2,3197.820000000007,completion,,,0.495,,,,,,,,,,,,,,,,,0.485,false,396831.90000009537,396829.892,393615.383,393617.60000014305,393632.072,396846.518,,,
fixation,canvas.Screen,0_8_28_0,2022-07-15T22:42:38.077Z,,,,,,4,716.1900000000023,timeout,,,0.51,,,,,,,,,,,,,,,,,0.49,true,397330.7999999523,397329.547,396829.892,396832.2000000477,396846.518,397562.708,,,
stimulus,canvas.Screen,0_8_28_1,2022-07-15T22:42:39.571Z,,,,,,4,1258.9920000476995,response,,0.49,0.51,,,https://raw.githubusercontent.com/carero2/loss-perception/main/png/0.49blue1yellowb%3D1w%3D100v%3D11.png,https://raw.githubusercontent.com/carero2/loss-perception/main/png/0.51blue1yellowb%3D1w%3D100v%3D11.png,,,,,,,,,true,f,keypress(f),0.51,0.49,true,398824.2999999523,398821.7000000477,397329.547,397591.2999999523,397562.708,398878.366,,,
choice,canvas.Screen,0_8_28_2,2022-07-15T22:42:40.609Z,,,,0.49,,4,999.3859999999986,timeout,,,0.51,,0.51,,,2,39,,,,,,,,,,,0.49,true,399862.40000009537,399861.172,398862.042,398867.40000009537,398878.366,399877.752,139,,
ITI,canvas.Screen,0_8_28_3,2022-07-15T22:42:41.108Z,,,2666,,,4,499.6370000000461,timeout,,,0.51,,,,,,,,,,,,,,,,,0.49,true,400361.2000000477,400360.712,399861.172,399862.7999999523,399877.752,400377.389,,,
trial,flow.Sequence,0_8_28,2022-07-15T22:42:41.108Z,,,,,,4,3514.1940000000177,completion,,,0.51,,,,,,,,,,,,,,,,,0.49,true,400361.40000009537,400360.712,396829.892,396832.10000014305,396846.518,400377.389,,,
fixation,canvas.Screen,0_8_29_0,2022-07-15T22:42:41.608Z,,,,,,6,732.9199999999837,timeout,,,0.515,,,,,,,,,,,,,,,,,0.485,true,400861.7000000477,400860.53,400360.712,400361.5,400377.389,401110.309,,,
stimulus,canvas.Screen,0_8_29_1,2022-07-15T22:42:43.081Z,,,,,,6,1217.3910000476753,response,,0.485,0.515,,,https://raw.githubusercontent.com/carero2/loss-perception/main/png/0.485blue1yellowb%3D1w%3D100v%3D36.png,https://raw.githubusercontent.com/carero2/loss-perception/main/png/0.515blue1yellowb%3D1w%3D100v%3D36.png,,,,,,,,,true,f,keypress(f),0.515,0.485,true,402334.60000014305,402327.7000000477,400860.53,401124.90000009537,401110.309,402376.055,,,
choice,canvas.Screen,0_8_29_2,2022-07-15T22:42:44.108Z,,,,0.485,,6,999.335000000021,timeout,,,0.515,,0.515,,,3,42,,,,,,,,,,,0.485,true,403360.90000009537,403358.853,402359.566,402374.2999999523,402376.055,403375.39,142,,
ITI,canvas.Screen,0_8_29_3,2022-07-15T22:42:44.606Z,,,2951,,,6,499.6730000000098,timeout,,,0.515,,,,,,,,,,,,,,,,,0.485,true,403859.60000014305,403858.476,403358.853,403361.60000014305,403375.39,403875.063,,,
trial,flow.Sequence,0_8_29,2022-07-15T22:42:44.607Z,,,,,,6,3481.0869999999995,completion,,,0.515,,,,,,,,,,,,,,,,,0.485,true,403860.10000014305,403858.476,400360.712,400361.40000009537,400377.389,403875.063,,,
fixation,canvas.Screen,0_8_30_0,2022-07-15T22:42:45.106Z,,,,,,2,716.2609999999986,timeout,,,0.515,,,,,,,,,,,,,,,,,0.505,false,404359.10000014305,404358.094,403858.476,403860.40000009537,403875.063,404591.324,,,
stimulus,canvas.Screen,0_8_30_1,2022-07-15T22:42:47.133Z,,,,,,2,1792.1759999999776,response,,0.515,0.515,,,https://raw.githubusercontent.com/carero2/loss-perception/main/png/0.515blue1yellowb%3D1w%3D100v%3D57.png,https://raw.githubusercontent.com/carero2/loss-perception/main/png/0.505blue1yellowb%3D1w%3D100v%3D57.png,,,,,,,,,true,f,keypress(f),0.505,0.505,false,406385.90000009537,406383.5,404358.094,404602.5,404591.324,406439.931,,,
choice,canvas.Screen,0_8_30_2,2022-07-15T22:42:48.170Z,,,,0.515,,2,999.454000000027,timeout,,,0.515,,0.505,,,-3,39,,,,,,,,,,,0.505,false,407423.7000000477,407422.72,406423.581,406435.60000014305,406439.931,407439.385,139,,
ITI,canvas.Screen,0_8_30_3,2022-07-15T22:42:48.670Z,,,2956,,,2,499.5899999999674,timeout,,,0.515,,,,,,,,,,,,,,,,,0.505,false,407923.5,407922.389,407422.72,407424.2000000477,407439.385,407938.975,,,
trial,flow.Sequence,0_8_30,2022-07-15T22:42:48.672Z,,,,,,2,4047.326000000001,completion,,,0.515,,,,,,,,,,,,,,,,,0.505,false,407925,407922.389,403858.476,403860.2999999523,403875.063,407938.975,,,
fixation,canvas.Screen,0_8_31_0,2022-07-15T22:42:49.169Z,,,,,,6,699.5840000000317,timeout,,,0.485,,,,,,,,,,,,,,,,,0.455,true,408423,408422.039,407922.389,407925.7999999523,407938.975,408638.559,,,
stimulus,canvas.Screen,0_8_31_1,2022-07-15T22:42:50.845Z,,,,,,6,1458.4409999999916,response,,0.455,0.485,,,https://raw.githubusercontent.com/carero2/loss-perception/main/png/0.455blue1yellowb%3D1w%3D100v%3D18.png,https://raw.githubusercontent.com/carero2/loss-perception/main/png/0.485blue1yellowb%3D1w%3D100v%3D18.png,,,,,,,,,true,f,keypress(f),0.485,0.455,true,410099.60000014305,410097,408422.039,408653.2999999523,408638.559,410154.14,,,
choice,canvas.Screen,0_8_31_2,2022-07-15T22:42:51.883Z,,,,0.455,,6,999.4259999999776,timeout,,,0.485,,0.485,,,9,48,,,,,,,,,,,0.455,true,411137.7999999523,411136.878,410137.879,410139.7000000477,410154.14,411153.566,148,,
ITI,canvas.Screen,0_8_31_3,2022-07-15T22:42:52.383Z,,,2834,,,6,499.64400000002934,timeout,,,0.485,,,,,,,,,,,,,,,,,0.455,true,411637.7000000477,411636.569,411136.878,411138.2000000477,411153.566,411653.21,,,
trial,flow.Sequence,0_8_31,2022-07-15T22:42:52.384Z,,,,,,6,3697.594000000041,completion,,,0.485,,,,,,,,,,,,,,,,,0.455,true,411638.2000000477,411636.569,407922.389,407925.7000000477,407938.975,411653.21,,,
fixation,canvas.Screen,0_8_32_0,2022-07-15T22:42:52.883Z,,,,,,4,716.2149999999674,timeout,,,0.49,,,,,,,,,,,,,,,,,0.47,true,412137.2999999523,412136.211,411636.569,411638.5,411653.21,412369.425,,,
stimulus,canvas.Screen,0_8_32_1,2022-07-15T22:42:54.184Z,,,,,,4,1067.6750001430628,response,,0.47,0.49,,,https://raw.githubusercontent.com/carero2/loss-perception/main/png/0.47blue1yellowb%3D1w%3D100v%3D40.png,https://raw.githubusercontent.com/carero2/loss-perception/main/png/0.49blue1yellowb%3D1w%3D100v%3D40.png,,,,,,,,,true,f,keypress(f),0.49,0.47,true,413438.7000000477,413437.10000014305,412136.211,412393.5,412369.425,413485.156,,,
choice,canvas.Screen,0_8_32_2,2022-07-15T22:42:55.215Z,,,,0.47,,4,999.4130000000005,timeout,,,0.49,,0.49,,,6,54,,,,,,,,,,,0.47,true,414469.10000014305,414467.969,413468.69,413481.60000014305,413485.156,414484.569,154,,
ITI,canvas.Screen,0_8_32_3,2022-07-15T22:42:55.714Z,,,2532,,,4,499.65099999995437,timeout,,,0.49,,,,,,,,,,,,,,,,,0.47,true,414968.7999999523,414967.665,414467.969,414469.60000014305,414484.569,414984.22,,,
trial,flow.Sequence,0_8_32,2022-07-15T22:42:55.715Z,,,,,,4,3314.454999999958,completion,,,0.49,,,,,,,,,,,,,,,,,0.47,true,414969.5,414967.665,411636.569,411638.40000009537,411653.21,414984.22,,,
fixation,canvas.Screen,0_8_33_0,2022-07-15T22:42:56.214Z,,,,,,6,516.2920000000158,timeout,,,0.545,,,,,,,,,,,,,,,,,0.515,true,415468.5,415467.318,414967.665,414969.90000009537,414984.22,415500.512,,,
stimulus,canvas.Screen,0_8_33_1,2022-07-15T22:42:57.715Z,,,,,,6,1466.7879999523284,response,,0.515,0.545,,,https://raw.githubusercontent.com/carero2/loss-perception/main/png/0.515blue1yellowb%3D1w%3D100v%3D97.png,https://raw.githubusercontent.com/carero2/loss-perception/main/png/0.545blue1yellowb%3D1w%3D100v%3D97.png,,,,,,,,,true,f,keypress(f),0.545,0.515,true,416969.2999999523,416967.2999999523,415467.318,415502.90000009537,415500.512,417016.13,,,
choice,canvas.Screen,0_8_33_2,2022-07-15T22:42:58.746Z,,,,0.515,,6,999.3790000000154,timeout,,,0.545,,0.545,,,-3,51,,,,,,,,,,,0.515,true,418000.10000014305,417998.891,416999.723,417007.40000009537,417016.13,418015.509,151,,
ITI,canvas.Screen,0_8_33_3,2022-07-15T22:42:59.245Z,,,2195,,,6,499.6119999999646,timeout,,,0.545,,,,,,,,,,,,,,,,,0.515,true,418498.90000009537,418498.498,417998.891,418000.60000014305,418015.509,418515.121,,,
trial,flow.Sequence,0_8_33,2022-07-15T22:42:59.245Z,,,,,,6,3514.2780000000494,completion,,,0.545,,,,,,,,,,,,,,,,,0.515,true,418499.10000014305,418498.498,414967.665,414969.7999999523,414984.22,418515.121,,,
fixation,canvas.Screen,0_8_34_0,2022-07-15T22:42:59.745Z,,,,,,2,699.570000000007,timeout,,,0.505,,,,,,,,,,,,,,,,,0.495,false,418999.40000009537,418998.271,418498.498,418499.2000000477,418515.121,419214.691,,,
stimulus,canvas.Screen,0_8_34_1,2022-07-15T22:43:01.831Z,,,,,,2,1869.009000047692,response,,0.505,0.505,,,https://raw.githubusercontent.com/carero2/loss-perception/main/png/0.505blue1yellowb%3D1w%3D100v%3D22.png,https://raw.githubusercontent.com/carero2/loss-perception/main/png/0.495blue1yellowb%3D1w%3D100v%3D22.png,,,,,,,,,true,f,keypress(f),0.495,0.495,false,421085.60000014305,421083.7000000477,418998.271,419224.7999999523,419214.691,421146.679,,,
choice,canvas.Screen,0_8_34_2,2022-07-15T22:43:02.876Z,,,,0.505,,2,999.3520000000135,timeout,,,0.505,,0.495,,,-1,50,,,,,,,,,,,0.495,false,422130.60000014305,422129.493,421130.328,421133.7000000477,421146.679,422146.031,150,,
ITI,canvas.Screen,0_8_34_3,2022-07-15T22:43:03.376Z,,,2250,,,2,499.67399999999907,timeout,,,0.505,,,,,,,,,,,,,,,,,0.495,false,422630.2999999523,422629.13,422129.493,422131.10000014305,422146.031,422645.705,,,
trial,flow.Sequence,0_8_34,2022-07-15T22:43:03.377Z,,,,,,2,4114.00900000002,completion,,,0.505,,,,,,,,,,,,,,,,,0.495,false,422630.90000009537,422629.13,418498.498,418499.2000000477,418515.121,422645.705,,,
fixation,canvas.Screen,0_8_35_0,2022-07-15T22:43:03.876Z,,,,,,4,782.869000000006,timeout,,,0.53,,,,,,,,,,,,,,,,,0.51,true,423129.90000009537,423128.79,422629.13,422631.40000009537,422645.705,423428.574,,,
stimulus,canvas.Screen,0_8_35_1,2022-07-15T22:43:05.538Z,,,,,,4,1361.9259999999776,response,,0.51,0.53,,,https://raw.githubusercontent.com/carero2/loss-perception/main/png/0.51blue1yellowb%3D1w%3D100v%3D29.png,https://raw.githubusercontent.com/carero2/loss-perception/main/png/0.53blue1yellowb%3D1w%3D100v%3D29.png,,,,,,,,,true,f,keypress(f),0.53,0.51,true,424792.40000009537,424790.5,423128.79,423445.90000009537,423428.574,424844.201,,,
choice,canvas.Screen,0_8_35_2,2022-07-15T22:43:06.574Z,,,,0.51,,4,999.4099999999744,timeout,,,0.53,,0.53,,,-2,48,,,,,,,,,,,0.51,true,425828.2000000477,425826.999,424811.068,424827.40000009537,424844.201,425843.611,148,,
ITI,canvas.Screen,0_8_35_3,2022-07-15T22:43:07.074Z,,,2990,,,4,499.61800000001676,timeout,,,0.53,,,,,,,,,,,,,,,,,0.51,true,426328.7000000477,426326.67,425826.999,425828.60000014305,425843.611,426343.229,,,
trial,flow.Sequence,0_8_35,2022-07-15T22:43:07.075Z,,,,,,4,3680.9649999999674,completion,,,0.53,,,,,,,,,,,,,,,,,0.51,true,426329.60000014305,426326.67,422629.13,422631.2000000477,422645.705,426343.229,,,
fixation,canvas.Screen,0_8_36_0,2022-07-15T22:43:07.573Z,,,,,,6,716.2250000000349,timeout,,,0.545,,,,,,,,,,,,,,,,,0.515,true,426827.40000009537,426826.282,426326.67,426330.2000000477,426343.229,427059.454,,,
stimulus,canvas.Screen,0_8_36_1,2022-07-15T22:43:08.919Z,,,,,,6,1112.2460000476567,response,,0.515,0.545,,,https://raw.githubusercontent.com/carero2/loss-perception/main/png/0.515blue1yellowb%3D1w%3D100v%3D5.png,https://raw.githubusercontent.com/carero2/loss-perception/main/png/0.545blue1yellowb%3D1w%3D100v%3D5.png,,,,,,,,,true,f,keypress(f),0.545,0.515,true,428173.2000000477,428171.7000000477,426826.282,427082.90000009537,427059.454,428225.211,,,
choice,canvas.Screen,0_8_36_2,2022-07-15T22:43:09.955Z,,,,0.515,,6,999.3729999999632,timeout,,,0.545,,0.545,,,-3,45,,,,,,,,,,,0.515,true,429209.2999999523,429208.021,428208.89,428214.90000009537,428225.211,429224.584,145,,
ITI,canvas.Screen,0_8_36_3,2022-07-15T22:43:10.455Z,,,2419,,,6,499.6790000000037,timeout,,,0.545,,,,,,,,,,,,,,,,,0.515,true,429709,429707.715,429208.021,429209.7000000477,429224.584,429724.263,,,
trial,flow.Sequence,0_8_36,2022-07-15T22:43:10.455Z,,,,,,6,3364.4860000000335,completion,,,0.545,,,,,,,,,,,,,,,,,0.515,true,429709.7000000477,429707.715,426326.67,426330,426343.229,429724.263,,,
fixation,canvas.Screen,0_8_37_0,2022-07-15T22:43:10.954Z,,,,,,4,732.8190000000177,timeout,,,0.49,,,,,,,,,,,,,,,,,0.47,true,430208.60000014305,430207.373,429707.715,429710.10000014305,429724.263,430457.082,,,
stimulus,canvas.Screen,0_8_37_1,2022-07-15T22:43:12.720Z,,,,,,4,1515.8180000953726,response,,0.47,0.49,,,https://raw.githubusercontent.com/carero2/loss-perception/main/png/0.47blue1yellowb%3D1w%3D100v%3D27.png,https://raw.githubusercontent.com/carero2/loss-perception/main/png/0.49blue1yellowb%3D1w%3D100v%3D27.png,,,,,,,,,true,f,keypress(f),0.49,0.47,true,431974.90000009537,431972.90000009537,430207.373,430471.7999999523,430457.082,432039.341,,,
choice,canvas.Screen,0_8_37_2,2022-07-15T22:43:13.769Z,,,,0.47,,4,999.3549999999814,timeout,,,0.49,,0.49,,,6,51,,,,,,,,,,,0.47,true,433023.40000009537,433022.118,432022.984,432023.5,432039.341,433038.696,151,,
ITI,canvas.Screen,0_8_37_3,2022-07-15T22:43:14.269Z,,,2512,,,4,499.67499999998836,timeout,,,0.49,,,,,,,,,,,,,,,,,0.47,true,433523,433521.805,433022.118,433023.7999999523,433038.696,433538.371,,,
trial,flow.Sequence,0_8_37,2022-07-15T22:43:14.269Z,,,,,,4,3797.542000000016,completion,,,0.49,,,,,,,,,,,,,,,,,0.47,true,433523.7000000477,433521.805,429707.715,429710,429724.263,433538.371,,,
fixation,canvas.Screen,0_8_38_0,2022-07-15T22:43:14.768Z,,,,,,2,716.1990000000224,timeout,,,0.495,,,,,,,,,,,,,,,,,0.485,false,434022.60000014305,434021.396,433521.805,433524,433538.371,434254.57,,,
stimulus,canvas.Screen,0_8_38_1,2022-07-15T22:43:16.746Z,,,,,,2,1743.8300000953604,response,,0.495,0.495,,,https://raw.githubusercontent.com/carero2/loss-perception/main/png/0.495blue1yellowb%3D1w%3D100v%3D93.png,https://raw.githubusercontent.com/carero2/loss-perception/main/png/0.485blue1yellowb%3D1w%3D100v%3D93.png,,,,,,,,,true,f,keypress(f),0.485,0.485,false,436000.2999999523,435998.40000009537,434021.396,434265.2000000477,434254.57,436053.252,,,
choice,canvas.Screen,0_8_38_2,2022-07-15T22:43:17.783Z,,,,0.495,,2,999.3870000000461,timeout,,,0.495,,0.485,,,1,52,,,,,,,,,,,0.485,false,437037.40000009537,437036.065,436036.905,436045.5,436053.252,437052.639,152,,
ITI,canvas.Screen,0_8_38_3,2022-07-15T22:43:18.283Z,,,2060,,,2,499.6719999999623,timeout,,,0.495,,,,,,,,,,,,,,,,,0.485,false,437537,437535.728,437036.065,437037.7999999523,437052.639,437552.311,,,
trial,flow.Sequence,0_8_38,2022-07-15T22:43:18.283Z,,,,,,2,3997.357000000018,completion,,,0.495,,,,,,,,,,,,,,,,,0.485,false,437537.7000000477,437535.728,433521.805,433523.90000009537,433538.371,437552.311,,,
fixation,canvas.Screen,0_8_39_0,2022-07-15T22:43:18.781Z,,,,,,4,699.63400000002,timeout,,,0.51,,,,,,,,,,,,,,,,,0.49,false,438035.90000009537,438035.302,437535.728,437538.10000014305,437552.311,438251.945,,,
stimulus,canvas.Screen,0_8_39_1,2022-07-15T22:43:20.233Z,,,,,,4,1233.3549999523093,response,,0.51,0.51,,,https://raw.githubusercontent.com/carero2/loss-perception/main/png/0.51blue1yellowb%3D1w%3D100v%3D100.png,https://raw.githubusercontent.com/carero2/loss-perception/main/png/0.49blue1yellowb%3D1w%3D100v%3D100.png,,,,,,,,,true,j,keypress(j),0.49,0.49,false,439487.2000000477,439485.2999999523,438035.302,438291.7000000477,438251.945,439534.239,,,
choice,canvas.Screen,0_8_39_2,2022-07-15T22:43:21.264Z,,,,0.49,,4,999.4130000000005,timeout,,,0.51,,0.51,,,2,54,,,,,,,,,,,0.49,false,440518,440516.968,439517.848,439525.7000000477,439534.239,440533.652,154,,
ITI,canvas.Screen,0_8_39_3,2022-07-15T22:43:21.764Z,,,2291,,,4,499.6579999999958,timeout,,,0.51,,,,,,,,,,,,,,,,,0.49,false,441017.90000009537,441016.738,440516.968,440518.40000009537,440533.652,441033.31,,,
trial,flow.Sequence,0_8_39,2022-07-15T22:43:21.764Z,,,,,,4,3464.427000000025,completion,,,0.51,,,,,,,,,,,,,,,,,0.49,false,441018.40000009537,441016.738,437535.728,437537.90000009537,437552.311,441033.31,,,
fixation,canvas.Screen,0_8_40_0,2022-07-15T22:43:22.263Z,,,,,,4,699.4810000000289,timeout,,,0.53,,,,,,,,,,,,,,,,,0.51,true,441517.5,441516.37,441016.738,441018.60000014305,441033.31,441732.791,,,
stimulus,canvas.Screen,0_8_40_1,2022-07-15T22:43:23.682Z,,,,,,4,1200.7089999999735,response,,0.51,0.53,,,https://raw.githubusercontent.com/carero2/loss-perception/main/png/0.51blue1yellowb%3D1w%3D100v%3D38.png,https://raw.githubusercontent.com/carero2/loss-perception/main/png/0.53blue1yellowb%3D1w%3D100v%3D38.png,,,,,,,,,true,f,keypress(f),0.53,0.51,true,442936,442933.5,441516.37,441743,441732.791,442981.92,,,
choice,canvas.Screen,0_8_40_2,2022-07-15T22:43:24.712Z,,,,0.51,,4,999.4810000000289,timeout,,,0.53,,0.53,,,-2,52,,,,,,,,,,,0.51,true,443966,443964.712,442965.474,442979.40000009537,442981.92,443981.401,152,,
ITI,canvas.Screen,0_8_40_3,2022-07-15T22:43:25.211Z,,,2466,,,4,499.6579999999958,timeout,,,0.53,,,,,,,,,,,,,,,,,0.51,true,444465.5,444464.37,443964.712,443966.40000009537,443981.401,444481.059,,,
trial,flow.Sequence,0_8_40,2022-07-15T22:43:25.212Z,,,,,,4,3431.0599999999977,completion,,,0.53,,,,,,,,,,,,,,,,,0.51,true,444466,444464.37,441016.738,441018.60000014305,441033.31,444481.059,,,
fixation,canvas.Screen,0_8_41_0,2022-07-15T22:43:25.711Z,,,,,,6,732.8080000000191,timeout,,,0.485,,,,,,,,,,,,,,,,,0.455,true,444965,444964.043,444464.37,444466.2999999523,444481.059,445213.867,,,
stimulus,canvas.Screen,0_8_41_1,2022-07-15T22:43:26.986Z,,,,,,6,1025.3330000476562,response,,0.455,0.485,,,https://raw.githubusercontent.com/carero2/loss-perception/main/png/0.455blue1yellowb%3D1w%3D100v%3D6.png,https://raw.githubusercontent.com/carero2/loss-perception/main/png/0.485blue1yellowb%3D1w%3D100v%3D6.png,,,,,,,,,true,f,keypress(f),0.485,0.455,true,446240.7000000477,446239.2000000477,444964.043,445252.2999999523,445213.867,446279.692,,,
choice,canvas.Screen,0_8_41_2,2022-07-15T22:43:28.009Z,,,,0.455,,6,999.4000000000233,timeout,,,0.485,,0.485,,,9,61,,,,,,,,,,,0.455,true,447263.7999999523,447262.485,446263.22,446277.7999999523,446279.692,447279.092,161,,
ITI,canvas.Screen,0_8_41_3,2022-07-15T22:43:28.509Z,,,2714,,,6,499.6460000000079,timeout,,,0.485,,,,,,,,,,,,,,,,,0.455,true,447763.2999999523,447762.123,447262.485,447264.2000000477,447279.092,447778.738,,,
trial,flow.Sequence,0_8_41,2022-07-15T22:43:28.510Z,,,,,,6,3281.064000000013,completion,,,0.485,,,,,,,,,,,,,,,,,0.455,true,447764.10000014305,447762.123,444464.37,444466.2999999523,444481.059,447778.738,,,
fixation,canvas.Screen,0_8_42_0,2022-07-15T22:43:29.008Z,,,,,,2,716.1869999999763,timeout,,,0.505,,,,,,,,,,,,,,,,,0.495,true,448262.5,448261.811,447762.123,447764.40000009537,447778.738,448494.925,,,
stimulus,canvas.Screen,0_8_42_1,2022-07-15T22:43:30.612Z,,,,,,2,1369.7750000476954,response,,0.495,0.505,,,https://raw.githubusercontent.com/carero2/loss-perception/main/png/0.495blue1yellowb%3D1w%3D100v%3D82.png,https://raw.githubusercontent.com/carero2/loss-perception/main/png/0.505blue1yellowb%3D1w%3D100v%3D82.png,,,,,,,,,true,f,keypress(f),0.505,0.495,true,449866.60000014305,449864.7000000477,448261.811,448506.2999999523,448494.925,449910.595,,,
choice,canvas.Screen,0_8_42_2,2022-07-15T22:43:31.640Z,,,,0.495,,2,999.4610000000102,timeout,,,0.505,,0.505,,,1,62,,,,,,,,,,,0.495,true,450894.60000014305,450893.371,449894.159,449905,449910.595,450910.056,162,,
ITI,canvas.Screen,0_8_42_3,2022-07-15T22:43:32.140Z,,,2821,,,2,499.579000000027,timeout,,,0.505,,,,,,,,,,,,,,,,,0.495,true,451394.2999999523,451393.067,450893.371,450895.10000014305,450910.056,451409.635,,,
trial,flow.Sequence,0_8_42,2022-07-15T22:43:32.141Z,,,,,,2,3614.328999999969,completion,,,0.505,,,,,,,,,,,,,,,,,0.495,true,451395.10000014305,451393.067,447762.123,447764.2999999523,447778.738,451409.635,,,
fixation,canvas.Screen,0_8_43_0,2022-07-15T22:43:32.640Z,,,,,,2,716.2199999999721,timeout,,,0.515,,,,,,,,,,,,,,,,,0.505,true,451893.90000009537,451892.698,451393.067,451395.40000009537,451409.635,452125.855,,,
stimulus,canvas.Screen,0_8_43_1,2022-07-15T22:43:33.759Z,,,,,,2,884.9449999523349,response,,0.505,0.515,,,https://raw.githubusercontent.com/carero2/loss-perception/main/png/0.505blue1yellowb%3D1w%3D100v%3D29.png,https://raw.githubusercontent.com/carero2/loss-perception/main/png/0.515blue1yellowb%3D1w%3D100v%3D29.png,,,,,,,,,true,j,keypress(j),0.515,0.505,true,453013.2999999523,453010.7999999523,451892.698,452137.2000000477,452125.855,453058.48,,,
choice,canvas.Screen,0_8_43_2,2022-07-15T22:43:34.788Z,,,,0.515,,2,999.4349999999977,timeout,,,0.515,,0.505,,,-3,59,,,,,,,,,,,0.505,true,454042.40000009537,454041.251,453042.02,453056.90000009537,453058.48,454057.915,159,,
ITI,canvas.Screen,0_8_43_3,2022-07-15T22:43:35.288Z,,,2010,,,2,499.68800000002375,timeout,,,0.515,,,,,,,,,,,,,,,,,0.505,true,454541.90000009537,454540.901,454041.251,454042.90000009537,454057.915,454557.603,,,
trial,flow.Sequence,0_8_43,2022-07-15T22:43:35.288Z,,,,,,2,3131.2660000000033,completion,,,0.515,,,,,,,,,,,,,,,,,0.505,true,454542.40000009537,454540.901,451393.067,451395.2000000477,451409.635,454557.603,,,
fixation,canvas.Screen,0_8_44_0,2022-07-15T22:43:35.787Z,,,,,,6,699.5210000000079,timeout,,,0.515,,,,,,,,,,,,,,,,,0.485,false,455041.60000014305,455040.601,454540.901,454542.7000000477,454557.603,455257.124,,,
stimulus,canvas.Screen,0_8_44_1,2022-07-15T22:43:37.711Z,,,,,,6,1706.3759999999893,response,,0.515,0.515,,,https://raw.githubusercontent.com/carero2/loss-perception/main/png/0.515blue1yellowb%3D1w%3D100v%3D48.png,https://raw.githubusercontent.com/carero2/loss-perception/main/png/0.485blue1yellowb%3D1w%3D100v%3D48.png,,,,,,,,,true,j,keypress(j),0.485,0.485,false,456965.10000014305,456963.5,455040.601,455288.10000014305,455257.124,457022.442,,,
choice,canvas.Screen,0_8_44_2,2022-07-15T22:43:38.752Z,,,,0.485,,6,999.4349999999977,timeout,,,0.515,,0.515,,,3,62,,,,,,,,,,,0.485,false,458006.40000009537,458005.239,457006.051,457015.5,457022.442,458021.877,162,,
ITI,canvas.Screen,0_8_44_3,2022-07-15T22:43:39.251Z,,,2466,,,6,499.55300000001444,timeout,,,0.515,,,,,,,,,,,,,,,,,0.485,false,458505.2000000477,458504.78,458005.239,458006.90000009537,458021.877,458521.43,,,
trial,flow.Sequence,0_8_44,2022-07-15T22:43:39.251Z,,,,,,6,3947.177000000025,completion,,,0.515,,,,,,,,,,,,,,,,,0.485,false,458505.40000009537,458504.78,454540.901,454542.7000000477,454557.603,458521.43,,,
1st block,flow.Loop,0_8,2022-07-15T22:43:39.251Z,,,,,,,160158.44600000005,completion,,,,,,,,,,,,,,,,,,,,,,458505.5,458504.78,298329.995,298345.10000014305,298346.334,458521.43,,,
show amount,html.Screen,0_9,2022-07-15T22:43:46.779Z,,,,,,,7509.470000095374,response,,,,,,,,,,,,,,,,,Continue,click #Continue,,,,466033,466030.90000009537,458504.78,458506.2000000477,458521.43,466033.039,,,
second block,canvas.Screen,0_10,2022-07-15T22:43:49.156Z,,,,,,,2375.2609999523265,response,,,,,,,,,,,,,,,,,space,keypress(Space),,,,468409.5,468408.2999999523,466016.51,466033.10000014305,466033.039,468414.806,,,
fixation,canvas.Screen,0_11_0_0,2022-07-15T22:43:49.645Z,,,,,,2,699.5879999999888,timeout,,,0.505,,,,,,,,,,,,,,,,,0.495,true,468899.10000014305,468897.912,468398.53,468410,468414.806,469114.394,,,
stimulus,canvas.Screen,0_11_0_1,2022-07-15T22:43:51.665Z,,,,,,2,1801.3060000477126,response,,0.495,0.505,,,https://raw.githubusercontent.com/carero2/loss-perception/main/png/0.495blue1yellowb%3D1w%3D100v%3D65.png,https://raw.githubusercontent.com/carero2/loss-perception/main/png/0.505blue1yellowb%3D1w%3D100v%3D65.png,,,,,,,,,true,f,keypress(f),0.505,0.495,true,470918.2000000477,470915.7000000477,468897.912,469138.90000009537,469114.394,470979.71,,,
choice,canvas.Screen,0_11_0_2,2022-07-15T22:43:52.710Z,,,,0.495,,2,999.4089999999851,timeout,,,0.505,,0.505,,,1,,1,,,,,,,,,,0.495,true,471963.7000000477,471962.473,470963.323,470968.5,470979.71,471979.119,163,,
ITI,canvas.Screen,0_11_0_3,2022-07-15T22:43:53.210Z,,,2991,,,2,499.71199999999953,timeout,,,0.505,,,,,,,,,,,,,,,,,0.495,true,472463.5,472462.142,471962.473,471964.10000014305,471979.119,472478.831,,,
trial,flow.Sequence,0_11_0,2022-07-15T22:43:53.211Z,,,,,,2,4047.3360000000102,completion,,,0.505,,,,,,,,,,,,,,,,,0.495,true,472464.2999999523,472462.142,468398.53,468409.90000009537,468414.806,472478.831,,,
fixation,canvas.Screen,0_11_1_0,2022-07-15T22:43:53.709Z,,,,,,4,682.8339999999735,timeout,,,0.51,,,,,,,,,,,,,,,,,0.49,false,472962.7999999523,472961.751,472462.142,472464.60000014305,472478.831,473161.665,,,
stimulus,canvas.Screen,0_11_1_1,2022-07-15T22:43:55.145Z,,,,,,4,1234.935000143072,response,,0.51,0.51,,,https://raw.githubusercontent.com/carero2/loss-perception/main/png/0.51blue1yellowb%3D1w%3D100v%3D29.png,https://raw.githubusercontent.com/carero2/loss-perception/main/png/0.49blue1yellowb%3D1w%3D100v%3D29.png,,,,,,,,,true,f,keypress(f),0.49,0.49,false,474398.90000009537,474396.60000014305,472961.751,473181.90000009537,473161.665,474460.693,,,
choice,canvas.Screen,0_11_1_2,2022-07-15T22:43:56.192Z,,,,0.51,,4,999.3009999999776,timeout,,,0.51,,0.49,,,-2,,-1,,,,,,,,,,0.49,false,475445.90000009537,475443.444,474444.323,474444.90000009537,474460.693,475459.994,161,,
ITI,canvas.Screen,0_11_1_3,2022-07-15T22:43:56.691Z,,,2937,,,4,499.79099999996834,timeout,,,0.51,,,,,,,,,,,,,,,,,0.49,false,475944.2000000477,475943.106,475443.444,475446.2999999523,475459.994,475959.785,,,
trial,flow.Sequence,0_11_1,2022-07-15T22:43:56.691Z,,,,,,4,3464.2750000000233,completion,,,0.51,,,,,,,,,,,,,,,,,0.49,false,475944.90000009537,475943.106,472462.142,472464.5,472478.831,475959.785,,,
fixation,canvas.Screen,0_11_2_0,2022-07-15T22:43:57.191Z,,,,,,4,716.1620000000112,timeout,,,0.53,,,,,,,,,,,,,,,,,0.51,false,476444.90000009537,476442.836,475943.106,475945.2999999523,475959.785,476675.947,,,
stimulus,canvas.Screen,0_11_2_1,2022-07-15T22:43:58.643Z,,,,,,4,1219.2530000476982,response,,0.53,0.53,,,https://raw.githubusercontent.com/carero2/loss-perception/main/png/0.53blue1yellowb%3D1w%3D100v%3D32.png,https://raw.githubusercontent.com/carero2/loss-perception/main/png/0.51blue1yellowb%3D1w%3D100v%3D32.png,,,,,,,,,true,j,keypress(j),0.51,0.51,false,477897,477895.2000000477,476442.836,476719.40000009537,476675.947,477941.769,,,
choice,canvas.Screen,0_11_2_2,2022-07-15T22:43:59.671Z,,,,0.51,,4,999.2910000000265,timeout,,,0.53,,0.53,,,-2,,-3,,,,,,,,,,0.51,false,478924.7999999523,478924.36,477925.163,477932.2999999523,477941.769,478941.06,159,,
ITI,canvas.Screen,0_11_2_3,2022-07-15T22:44:00.172Z,,,2272,,,4,499.72200000000885,timeout,,,0.53,,,,,,,,,,,,,,,,,0.51,false,479425.2999999523,479424.092,478924.36,478925,478941.06,479440.782,,,
trial,flow.Sequence,0_11_2,2022-07-15T22:44:00.172Z,,,,,,4,3464.30700000003,completion,,,0.53,,,,,,,,,,,,,,,,,0.51,false,479426,479424.092,475943.106,475945.2000000477,475959.785,479440.782,,,
fixation,canvas.Screen,0_11_3_0,2022-07-15T22:44:00.671Z,,,,,,6,516.1639999999898,timeout,,,0.515,,,,,,,,,,,,,,,,,0.485,true,479924.5,479923.703,479424.092,479426.2999999523,479440.782,479956.946,,,
stimulus,canvas.Screen,0_11_3_1,2022-07-15T22:44:01.730Z,,,,,,6,1024.1540001430549,response,,0.485,0.515,,,https://raw.githubusercontent.com/carero2/loss-perception/main/png/0.485blue1yellowb%3D1w%3D100v%3D76.png,https://raw.githubusercontent.com/carero2/loss-perception/main/png/0.515blue1yellowb%3D1w%3D100v%3D76.png,,,,,,,,,true,f,keypress(f),0.515,0.485,true,480983.7000000477,480981.10000014305,479923.703,479958.7000000477,479956.946,481022.93,,,
