sender,sender_type,sender_id,timestamp,meta,,ITI_value,choice,consent,diff_net_value,duration,ended_on,gain_color,left,left_side,loss_color,not_choice,picture_left,picture_right,points,points1Block,points2Block,points3Block,points4Block,points5Block,points6Block,pointsBlock,responded,response,response_action,right,right_side,switch_sides,time_commit,time_end,time_render,time_run,time_show,time_switch,totalPoints,totalPoints_practice,url
welcome,html.Screen,0_0,2022-07-15T14:22:51.490Z,"{""labjs_version"":""20.2.4"",""labjs_build"":{""flavor"":""production"",""commit"":""f5b4a49f956347addd546a832a3327688c2c0fef""},""location"":""https://run.pavlovia.org/Rey/loss-perception/"",""userAgent"":""Mozilla/5.0 (Windows NT 10.0; Win64; x64) AppleWebKit/537.36 (KHTML, like Gecko) Chrome/103.0.0.0 Safari/537.36"",""platform"":""Win32"",""language"":""en-GB"",""locale"":""en-GB"",""timeZone"":""Europe/London"",""timezoneOffset"":-60,""screen_width"":1920,""screen_height"":1080,""scroll_width"":1574,""scroll_height"":863,""window_innerWidth"":1574,""window_innerHeight"":911,""devicePixelRatio"":1}",,,,,,2506.7829999940395,response,blue,,,yellow,,,,,0,0,0,0,0,0,0,,Continue,click #Continue,,,,7639.29999999702,7638.0999999940395,5114.649,5132.899999991059,5131.317,7647.576,100,100,{}
consent,html.Form,0_1,2022-07-15T14:23:02.166Z,,,,,true,,10667.12400000298,form submission,,,,,,,,,,,,,,,,,,,,,,18315,18314.70000000298,7630.946,7639.5999999940395,7647.576,18329.263,,,
ProlificID,html.Form,0_2,2022-07-15T14:23:05.980Z,,,,,,,3799.5369999970208,form submission,,,,,,,,,,,,,,,,,,,,,,22129.09999999404,22128.79999999702,18295.994,18315.09999999404,18329.263,22145.253,,,
instructions,html.Form,0_3,2022-07-15T14:23:57.154Z,,,,,,,51157.54699999702,form submission,,,,,,,,,,,,,,,,,,,,,,73303.09999999404,73302.79999999702,22112.12,22129.20000000298,22145.253,73320.327,,,
Practice,canvas.Screen,0_4,2022-07-15T14:24:01.204Z,,,,,,,4031.172999999995,response,,,,,,,,,,,,,,,,,space,keypress(Space),,,,77353.70000000298,77351.5,73303.697,73303.29999999702,73320.327,77353.034,,,
fixation,canvas.Screen,0_5_0_0,2022-07-15T14:24:01.688Z,,,,,,6,499.90899999999965,timeout,,,0.485,,,,,,,,,,,,,,,,,0.455,false,77837.20000000298,77836.392,77336.345,77354,77353.034,77852.943,,,
stimulus,canvas.Screen,0_5_0_1,2022-07-15T14:24:03.478Z,,,,,,6,1773.5570000000007,response,,0.485,0.485,,,https://raw.githubusercontent.com/carero2/loss-perception/main/png/0.485blue1yellowb%3D1w%3D100v%3D95.png,https://raw.githubusercontent.com/carero2/loss-perception/main/png/0.455blue1yellowb%3D1w%3D100v%3D95.png,,,,,,,,,true,f,keypress(f),0.455,0.455,false,79627.70000000298,79626.5,77836.392,77837.29999999702,77852.943,79636.005,,,
choice,canvas.Screen,0_5_0_2,2022-07-15T14:24:05.470Z,,,,0.485,,6,1999.7179999999935,timeout,,,0.485,,0.455,,,-3,,,,,,,-3,,,,,0.455,false,81619.70000000298,81619.042,79619.667,79629.70000000298,79636.005,81635.723,,97,
timeout,canvas.Screen,0_5_0_3,2022-07-15T14:24:05.472Z,,,,,,6,NaN,skipped,,,0.485,,,,,,,,,,,,,,,,,0.455,false,81621.39999999106,81619.042,,81621.20000000298,,81635.723,,,
ITI,canvas.Screen,0_5_0_4,2022-07-15T14:24:05.970Z,,,,,,6,499.9649999999965,timeout,,,0.485,,,,,,,,,,,,,,,,,0.455,false,82119.70000000298,82119.026,81619.042,81621.5,81635.723,82135.688,,,
trial,flow.Sequence,0_5_0,2022-07-15T14:24:05.971Z,,,,,,6,4765.991999999998,completion,,,0.485,,,,,,,,,,,,,,,,,0.455,false,82120.09999999404,82119.026,77336.345,77353.89999999106,77353.034,82135.688,,,
fixation,canvas.Screen,0_5_1_0,2022-07-15T14:24:06.470Z,,,,,,18,499.86200000000827,timeout,,,0.545,,,,,,,,,,,,,,,,,0.455,false,82619.39999999106,82618.864,82119.026,82120.29999999702,82135.688,82635.55,,,
stimulus,canvas.Screen,0_5_1_1,2022-07-15T14:24:08.619Z,,,,,,18,2131.449999999997,response,,0.545,0.545,,,https://raw.githubusercontent.com/carero2/loss-perception/main/png/0.545blue1yellowb%3D1w%3D100v%3D39.png,https://raw.githubusercontent.com/carero2/loss-perception/main/png/0.455blue1yellowb%3D1w%3D100v%3D39.png,,,,,,,,,true,j,keypress(j),0.455,0.455,false,84768.09999999404,84767,82618.864,82619.59999999404,82635.55,84785.258,,,
choice,canvas.Screen,0_5_1_2,2022-07-15T14:24:10.621Z,,,,0.455,,18,1999.6180000000022,timeout,,,0.545,,0.545,,,-9,,,,,,,-12,,,,,0.455,false,86770.70000000298,86768.161,84768.801,84770.39999999106,84785.258,86784.876,,88,
timeout,canvas.Screen,0_5_1_3,2022-07-15T14:24:10.623Z,,,,,,18,NaN,skipped,,,0.545,,,,,,,,,,,,,,,,,0.455,false,86773,86768.161,,86772.70000000298,,86784.876,,,
ITI,canvas.Screen,0_5_1_4,2022-07-15T14:24:11.119Z,,,,,,18,499.93799999999464,timeout,,,0.545,,,,,,,,,,,,,,,,,0.455,false,87268.79999999702,87268.202,86768.161,86773.09999999404,86784.876,87284.814,,,
trial,flow.Sequence,0_5_1,2022-07-15T14:24:11.120Z,,,,,,18,5132.51400000001,completion,,,0.545,,,,,,,,,,,,,,,,,0.455,false,87269.20000000298,87268.202,82119.026,82120.20000000298,82135.688,87284.814,,,
fixation,canvas.Screen,0_5_2_0,2022-07-15T14:24:11.619Z,,,,,,6,499.903999999995,timeout,,,0.515,,,,,,,,,,,,,,,,,0.485,true,87768.59999999404,87768.127,87268.202,87269.20000000298,87284.814,87784.718,,,
stimulus,canvas.Screen,0_5_2_1,2022-07-15T14:24:12.303Z,,,,,,6,666.5819999970263,response,,0.485,0.515,,,https://raw.githubusercontent.com/carero2/loss-perception/main/png/0.485blue1yellowb%3D1w%3D100v%3D57.png,https://raw.githubusercontent.com/carero2/loss-perception/main/png/0.515blue1yellowb%3D1w%3D100v%3D57.png,,,,,,,,,true,f,keypress(f),0.515,0.485,true,88452.5,88451.29999999702,87768.127,87768.79999999702,87784.718,88468.004,,,
choice,canvas.Screen,0_5_2_2,2022-07-15T14:24:14.302Z,,,,0.485,,6,1999.5979999999981,timeout,,,0.515,,0.515,,,-3,,,,,,,-15,,,,,0.485,true,90451.5,90450.946,88452.333,88455.59999999404,88468.004,90467.602,,85,
timeout,canvas.Screen,0_5_2_3,2022-07-15T14:24:14.303Z,,,,,,6,NaN,skipped,,,0.515,,,,,,,,,,,,,,,,,0.485,true,90452.5,90450.946,,90452.20000000298,,90467.602,,,
ITI,canvas.Screen,0_5_2_4,2022-07-15T14:24:14.802Z,,,,,,6,499.99899999999616,timeout,,,0.515,,,,,,,,,,,,,,,,,0.485,true,90951.39999999106,90950.849,90450.946,90452.5,90467.602,90967.601,,,
trial,flow.Sequence,0_5_2,2022-07-15T14:24:14.802Z,,,,,,6,3666.0350000000035,completion,,,0.515,,,,,,,,,,,,,,,,,0.485,true,90951.70000000298,90950.849,87268.202,87269.20000000298,87284.814,90967.601,,,
fixation,canvas.Screen,0_5_3_0,2022-07-15T14:24:15.302Z,,,,,,6,499.86699999999837,timeout,,,0.545,,,,,,,,,,,,,,,,,0.515,false,91451.5,91450.863,90950.849,90951.70000000298,90967.601,91467.468,,,
stimulus,canvas.Screen,0_5_3_1,2022-07-15T14:24:15.623Z,,,,,,6,304.8319999970263,response,,0.545,0.545,,,https://raw.githubusercontent.com/carero2/loss-perception/main/png/0.545blue1yellowb%3D1w%3D100v%3D17.png,https://raw.githubusercontent.com/carero2/loss-perception/main/png/0.515blue1yellowb%3D1w%3D100v%3D17.png,,,,,,,,,true,f,keypress(f),0.515,0.515,false,91772.79999999702,91772.29999999702,91450.863,91451.59999999404,91467.468,91784.092,,,
choice,canvas.Screen,0_5_3_2,2022-07-15T14:24:17.618Z,,,,0.545,,6,1999.7109999999957,timeout,,,0.545,,0.515,,,9,,,,,,,-6,,,,,0.515,false,93767.5,93767.053,91767.499,91774.5,91784.092,93783.803,,94,
timeout,canvas.Screen,0_5_3_3,2022-07-15T14:24:17.619Z,,,,,,6,NaN,skipped,,,0.545,,,,,,,,,,,,,,,,,0.515,false,93768.59999999404,93767.053,,93768.5,,93783.803,,,
ITI,canvas.Screen,0_5_3_4,2022-07-15T14:24:18.118Z,,,,,,6,499.9459999999963,timeout,,,0.545,,,,,,,,,,,,,,,,,0.515,false,94267.70000000298,94267.066,93767.053,93768.79999999702,93783.803,94283.749,,,
trial,flow.Sequence,0_5_3,2022-07-15T14:24:18.118Z,,,,,,6,3299.465000000011,completion,,,0.545,,,,,,,,,,,,,,,,,0.515,false,94268.09999999404,94267.066,90950.849,90951.70000000298,90967.601,94283.749,,,
fixation,canvas.Screen,0_5_4_0,2022-07-15T14:24:18.618Z,,,,,,9,499.7560000000085,timeout,,,0.485,,,,,,,,,,,,,,,,,0.53,true,94767.70000000298,94766.999,94267.066,94268.29999999702,94283.749,94783.505,,,
stimulus,canvas.Screen,0_5_4_1,2022-07-15T14:24:19.439Z,,,,,,9,804.3949999910546,response,,0.53,0.485,,,https://raw.githubusercontent.com/carero2/loss-perception/main/png/0.53blue1yellowb%3D1w%3D100v%3D62.png,https://raw.githubusercontent.com/carero2/loss-perception/main/png/0.485blue1yellowb%3D1w%3D100v%3D62.png,,,,,,,,,true,j,keypress(j),0.485,0.53,true,95589.09999999404,95587.89999999106,94766.999,94767.89999999106,94783.505,95600.149,,,
choice,canvas.Screen,0_5_4_2,2022-07-15T14:24:21.434Z,,,,0.485,,9,1999.607999999993,timeout,,,0.485,,0.53,,,-3,,,,,,,-9,,,,,0.53,true,97583.89999999106,97583.196,95584.55,95590.89999999106,95600.149,97599.757,,91,
timeout,canvas.Screen,0_5_4_3,2022-07-15T14:24:21.436Z,,,,,,9,NaN,skipped,,,0.485,,,,,,,,,,,,,,,,,0.53,true,97585.29999999702,97583.196,,97585.09999999404,,97599.757,,,
ITI,canvas.Screen,0_5_4_4,2022-07-15T14:24:21.934Z,,,,,,9,499.9229999999952,timeout,,,0.485,,,,,,,,,,,,,,,,,0.53,true,98083.70000000298,98083.146,97583.196,97585.5,97599.757,98099.68,,,
trial,flow.Sequence,0_5_4,2022-07-15T14:24:21.934Z,,,,,,9,3799.396999999997,completion,,,0.485,,,,,,,,,,,,,,,,,0.53,true,98084,98083.146,94267.066,94268.29999999702,94283.749,98099.68,,,
fixation,canvas.Screen,0_5_5_0,2022-07-15T14:24:22.434Z,,,,,,12,499.9240000000136,timeout,,,0.53,,,,,,,,,,,,,,,,,0.47,false,98583.59999999404,98583.047,98083.146,98084.20000000298,98099.68,98599.604,,,
stimulus,canvas.Screen,0_5_5_1,2022-07-15T14:24:22.729Z,,,,,,12,277.89599999999336,response,,0.53,0.53,,,https://raw.githubusercontent.com/carero2/loss-perception/main/png/0.53blue1yellowb%3D1w%3D100v%3D99.png,https://raw.githubusercontent.com/carero2/loss-perception/main/png/0.47blue1yellowb%3D1w%3D100v%3D99.png,,,,,,,,,true,j,keypress(j),0.47,0.47,false,98878.20000000298,98877.5,98583.047,98583.70000000298,98599.604,98882.886,,,
choice,canvas.Screen,0_5_5_2,2022-07-15T14:24:24.717Z,,,,0.47,,12,1999.7030000000086,timeout,,,0.53,,0.53,,,-6,,,,,,,-15,,,,,0.47,false,100866.5,100866.002,98866.315,98880.09999999404,98882.886,100882.589,,85,
timeout,canvas.Screen,0_5_5_3,2022-07-15T14:24:24.718Z,,,,,,12,NaN,skipped,,,0.53,,,,,,,,,,,,,,,,,0.47,false,100868,100866.002,,100867.79999999702,,100882.589,,,
ITI,canvas.Screen,0_5_5_4,2022-07-15T14:24:25.217Z,,,,,,12,499.99899999999616,timeout,,,0.53,,,,,,,,,,,,,,,,,0.47,false,101366.29999999702,101365.807,100866.002,100868.09999999404,100882.589,101382.588,,,
trial,flow.Sequence,0_5_5,2022-07-15T14:24:25.217Z,,,,,,12,3266.1270000000077,completion,,,0.53,,,,,,,,,,,,,,,,,0.47,false,101366.59999999404,101365.807,98083.146,98084.20000000298,98099.68,101382.588,,,
fixation,canvas.Screen,0_5_6_0,2022-07-15T14:24:25.718Z,,,,,,6,499.80599999999686,timeout,,,0.485,,,,,,,,,,,,,,,,,0.455,true,101868,101865.737,101365.807,101366.79999999702,101382.588,101882.394,,,
stimulus,canvas.Screen,0_5_6_1,2022-07-15T14:24:25.969Z,,,,,,6,235.60599999999977,response,,0.455,0.485,,,https://raw.githubusercontent.com/carero2/loss-perception/main/png/0.455blue1yellowb%3D1w%3D100v%3D15.png,https://raw.githubusercontent.com/carero2/loss-perception/main/png/0.485blue1yellowb%3D1w%3D100v%3D15.png,,,,,,,,,true,f,keypress(f),0.485,0.455,true,102118.59999999404,102118,101865.737,101868.20000000298,101882.394,102132.381,,,
choice,canvas.Screen,0_5_6_2,2022-07-15T14:24:27.966Z,,,,0.455,,6,1999.770000000004,timeout,,,0.485,,0.485,,,-9,,,,,,,-24,,,,,0.455,true,104116,104115.418,102115.945,102120.89999999106,102132.381,104132.151,,76,
timeout,canvas.Screen,0_5_6_3,2022-07-15T14:24:27.967Z,,,,,,6,NaN,skipped,,,0.485,,,,,,,,,,,,,,,,,0.455,true,104117.09999999404,104115.418,,104116.89999999106,,104132.151,,,
ITI,canvas.Screen,0_5_6_4,2022-07-15T14:24:28.466Z,,,,,,6,499.8990000000049,timeout,,,0.485,,,,,,,,,,,,,,,,,0.455,true,104615.89999999106,104615.296,104115.418,104117.09999999404,104132.151,104632.05,,,
trial,flow.Sequence,0_5_6,2022-07-15T14:24:28.466Z,,,,,,6,3232.7079999999987,completion,,,0.485,,,,,,,,,,,,,,,,,0.455,true,104616,104615.296,101365.807,101366.70000000298,101382.588,104632.05,,,
fixation,canvas.Screen,0_5_7_0,2022-07-15T14:24:28.967Z,,,,,,12,499.89100000000326,timeout,,,0.53,,,,,,,,,,,,,,,,,0.47,false,105116.79999999702,105115.188,104615.296,104616.20000000298,104632.05,105131.941,,,
stimulus,canvas.Screen,0_5_7_1,2022-07-15T14:24:29.314Z,,,,,,12,330.8589999970136,response,,0.53,0.53,,,https://raw.githubusercontent.com/carero2/loss-perception/main/png/0.53blue1yellowb%3D1w%3D100v%3D13.png,https://raw.githubusercontent.com/carero2/loss-perception/main/png/0.47blue1yellowb%3D1w%3D100v%3D13.png,,,,,,,,,true,j,keypress(j),0.47,0.47,false,105463.5,105462.79999999702,105115.188,105117,105131.941,105481.82,,,
choice,canvas.Screen,0_5_7_2,2022-07-15T14:24:31.316Z,,,,0.47,,12,1999.6649999999936,timeout,,,0.53,,0.53,,,-6,,,,,,,-30,,,,,0.47,false,107465.89999999106,107464.933,105465.235,105465.39999999106,105481.82,107481.485,,70,
timeout,canvas.Screen,0_5_7_3,2022-07-15T14:24:31.318Z,,,,,,12,NaN,skipped,,,0.53,,,,,,,,,,,,,,,,,0.47,false,107467.29999999702,107464.933,,107467.20000000298,,107481.485,,,
ITI,canvas.Screen,0_5_7_4,2022-07-15T14:24:31.816Z,,,,,,12,499.9400000000023,timeout,,,0.53,,,,,,,,,,,,,,,,,0.47,false,107965.39999999106,107964.854,107464.933,107467.39999999106,107481.485,107981.425,,,
trial,flow.Sequence,0_5_7,2022-07-15T14:24:31.816Z,,,,,,12,3332.8040000000037,completion,,,0.53,,,,,,,,,,,,,,,,,0.47,false,107965.59999999404,107964.854,104615.296,104616.09999999404,104632.05,107981.425,,,
fixation,canvas.Screen,0_5_8_0,2022-07-15T14:24:32.316Z,,,,,,9,499.90299999999115,timeout,,,0.485,,,,,,,,,,,,,,,,,0.53,false,108465.29999999702,108464.759,107964.854,107965.79999999702,107981.425,108481.328,,,
stimulus,canvas.Screen,0_5_8_1,2022-07-15T14:24:32.324Z,,,,,,9,7.941000002974761,response,,0.485,0.485,,,https://raw.githubusercontent.com/carero2/loss-perception/main/png/0.485blue1yellowb%3D1w%3D100v%3D93.png,https://raw.githubusercontent.com/carero2/loss-perception/main/png/0.53blue1yellowb%3D1w%3D100v%3D93.png,,,,,,,,,true,f,keypress(f),0.53,0.53,false,108473.70000000298,108472.70000000298,108464.759,108465.39999999106,,108498.148,,,
choice,canvas.Screen,0_5_8_2,2022-07-15T14:24:34.332Z,,,,0.485,,9,1999.5139999999956,timeout,,,0.485,,0.53,,,-3,,,,,,,-33,,,,,0.53,false,110481.5,110480.992,108481.328,108476.5,108498.148,110497.662,,67,
timeout,canvas.Screen,0_5_8_3,2022-07-15T14:24:34.334Z,,,,,,9,NaN,skipped,,,0.485,,,,,,,,,,,,,,,,,0.53,false,110483.20000000298,110480.992,,110483,,110497.662,,,
ITI,canvas.Screen,0_5_8_4,2022-07-15T14:24:34.832Z,,,,,,9,500.04000000000815,timeout,,,0.485,,,,,,,,,,,,,,,,,0.53,false,110981.59999999404,110981.041,110480.992,110483.39999999106,110497.662,110997.702,,,
trial,flow.Sequence,0_5_8,2022-07-15T14:24:34.832Z,,,,,,9,2999.6159999999945,completion,,,0.485,,,,,,,,,,,,,,,,,0.53,false,110981.79999999702,110981.041,107964.854,107965.70000000298,107981.425,110997.702,,,
fixation,canvas.Screen,0_5_9_0,2022-07-15T14:24:35.332Z,,,,,,6,499.87699999999313,timeout,,,0.545,,,,,,,,,,,,,,,,,0.515,false,111481.79999999702,111480.953,110981.041,110981.89999999106,110997.702,111497.579,,,
stimulus,canvas.Screen,0_5_9_1,2022-07-15T14:24:36.105Z,,,,,,6,756.2209999970219,response,,0.545,0.545,,,https://raw.githubusercontent.com/carero2/loss-perception/main/png/0.545blue1yellowb%3D1w%3D100v%3D70.png,https://raw.githubusercontent.com/carero2/loss-perception/main/png/0.515blue1yellowb%3D1w%3D100v%3D70.png,,,,,,,,,true,j,keypress(j),0.515,0.515,false,112254.79999999702,112253.79999999702,111480.953,111482.09999999404,111497.579,112264.118,,,
choice,canvas.Screen,0_5_9_2,2022-07-15T14:24:38.098Z,,,,0.515,,6,1999.7079999999987,timeout,,,0.545,,0.545,,,3,,,,,,,-30,,,,,0.515,false,114247.70000000298,114247.164,112247.499,112256.20000000298,112264.118,114263.826,,70,
timeout,canvas.Screen,0_5_9_3,2022-07-15T14:24:38.099Z,,,,,,6,NaN,skipped,,,0.545,,,,,,,,,,,,,,,,,0.515,false,114248.79999999702,114247.164,,114248.70000000298,,114263.826,,,
ITI,canvas.Screen,0_5_9_4,2022-07-15T14:24:38.598Z,,,,,,6,499.87600000000384,timeout,,,0.545,,,,,,,,,,,,,,,,,0.515,false,114747.70000000298,114747.084,114247.164,114249.09999999404,114263.826,114763.702,,,
trial,flow.Sequence,0_5_9,2022-07-15T14:24:38.598Z,,,,,,6,3749.381999999998,completion,,,0.545,,,,,,,,,,,,,,,,,0.515,false,114747.79999999702,114747.084,110981.041,110981.89999999106,110997.702,114763.702,,,
fixation,canvas.Screen,0_5_10_0,2022-07-15T14:24:39.098Z,,,,,,6,499.9789999999921,timeout,,,0.515,,,,,,,,,,,,,,,,,0.485,false,115247.5,115247.012,114747.084,114748,114763.702,115263.681,,,
stimulus,canvas.Screen,0_5_10_1,2022-07-15T14:24:40.223Z,,,,,,6,1100.0190000029834,response,,0.515,0.515,,,https://raw.githubusercontent.com/carero2/loss-perception/main/png/0.515blue1yellowb%3D1w%3D100v%3D95.png,https://raw.githubusercontent.com/carero2/loss-perception/main/png/0.485blue1yellowb%3D1w%3D100v%3D95.png,,,,,,,,,true,f,keypress(f),0.485,0.485,false,116372.39999999106,116363.70000000298,115247.012,115247.70000000298,115263.681,116380.125,,,
choice,canvas.Screen,0_5_10_2,2022-07-15T14:24:42.214Z,,,,0.515,,6,1999.7189999999973,timeout,,,0.515,,0.485,,,3,,,,,,,-27,,,,,0.485,false,118363.79999999702,118363.166,116364.717,116374.5,116380.125,118379.844,,73,
timeout,canvas.Screen,0_5_10_3,2022-07-15T14:24:42.216Z,,,,,,6,NaN,skipped,,,0.515,,,,,,,,,,,,,,,,,0.485,false,118365.09999999404,118363.166,,118364.89999999106,,118379.844,,,
ITI,canvas.Screen,0_5_10_4,2022-07-15T14:24:42.714Z,,,,,,6,499.87600000000384,timeout,,,0.515,,,,,,,,,,,,,,,,,0.485,false,118863.59999999404,118863.095,118363.166,118365.29999999702,118379.844,118879.72,,,
trial,flow.Sequence,0_5_10,2022-07-15T14:24:42.714Z,,,,,,6,4099.392999999996,completion,,,0.515,,,,,,,,,,,,,,,,,0.485,false,118863.89999999106,118863.095,114747.084,114748,114763.702,118879.72,,,
fixation,canvas.Screen,0_5_11_0,2022-07-15T14:24:43.214Z,,,,,,18,499.846000000005,timeout,,,0.545,,,,,,,,,,,,,,,,,0.455,true,119363.59999999404,119363.014,118863.095,118864,118879.72,119379.566,,,
stimulus,canvas.Screen,0_5_11_1,2022-07-15T14:24:44.245Z,,,,,,18,1014.2339999970136,response,,0.455,0.545,,,https://raw.githubusercontent.com/carero2/loss-perception/main/png/0.455blue1yellowb%3D1w%3D100v%3D15.png,https://raw.githubusercontent.com/carero2/loss-perception/main/png/0.545blue1yellowb%3D1w%3D100v%3D15.png,,,,,,,,,true,j,keypress(j),0.545,0.455,true,120394.79999999702,120393.79999999702,119363.014,119363.70000000298,119379.566,120412.83,,,
choice,canvas.Screen,0_5_11_2,2022-07-15T14:24:46.247Z,,,,0.545,,18,1999.596000000005,timeout,,,0.545,,0.455,,,9,,,,,,,-18,,,,,0.455,true,122396.39999999106,122395.864,120396.052,120396.70000000298,120412.83,122412.426,,82,
timeout,canvas.Screen,0_5_11_3,2022-07-15T14:24:46.248Z,,,,,,18,NaN,skipped,,,0.545,,,,,,,,,,,,,,,,,0.455,true,122397.70000000298,122395.864,,122397.5,,122412.426,,,
ITI,canvas.Screen,0_5_11_4,2022-07-15T14:24:46.747Z,,,,,,18,499.93199999998615,timeout,,,0.545,,,,,,,,,,,,,,,,,0.455,true,122896.29999999702,122895.76,122395.864,122397.89999999106,122412.426,122912.358,,,
trial,flow.Sequence,0_5_11,2022-07-15T14:24:46.747Z,,,,,,18,4016.0399999999936,completion,,,0.545,,,,,,,,,,,,,,,,,0.455,true,122896.70000000298,122895.76,118863.095,118864,118879.72,122912.358,,,
fixation,canvas.Screen,0_5_12_0,2022-07-15T14:24:47.247Z,,,,,,6,499.94100000000617,timeout,,,0.515,,,,,,,,,,,,,,,,,0.485,true,123396.20000000298,123395.723,122895.76,122896.89999999106,122912.358,123412.299,,,
stimulus,canvas.Screen,0_5_12_1,2022-07-15T14:24:49.011Z,,,,,,6,1746.5009999970207,response,,0.485,0.515,,,https://raw.githubusercontent.com/carero2/loss-perception/main/png/0.485blue1yellowb%3D1w%3D100v%3D5.png,https://raw.githubusercontent.com/carero2/loss-perception/main/png/0.515blue1yellowb%3D1w%3D100v%3D5.png,,,,,,,,,true,f,keypress(f),0.515,0.485,true,125159.89999999106,125158.79999999702,123395.723,123396.39999999106,123412.299,125178.68,,,
choice,canvas.Screen,0_5_12_2,2022-07-15T14:24:51.014Z,,,,0.485,,6,1999.6560000000027,timeout,,,0.515,,0.515,,,-3,,,,,,,-21,,,,,0.485,true,127162.89999999106,127161.767,125147.377,125161.79999999702,125178.68,127178.336,,79,
timeout,canvas.Screen,0_5_12_3,2022-07-15T14:24:51.015Z,,,,,,6,NaN,skipped,,,0.515,,,,,,,,,,,,,,,,,0.485,true,127164.39999999106,127161.767,,127164.20000000298,,127178.336,,,
ITI,canvas.Screen,0_5_12_4,2022-07-15T14:24:51.513Z,,,,,,6,499.96500000001106,timeout,,,0.515,,,,,,,,,,,,,,,,,0.485,true,127662.20000000298,127661.565,127161.767,127165,127178.336,127678.301,,,
trial,flow.Sequence,0_5_12,2022-07-15T14:24:51.513Z,,,,,,6,4749.207000000009,completion,,,0.515,,,,,,,,,,,,,,,,,0.485,true,127662.5,127661.565,122895.76,122896.79999999702,122912.358,127678.301,,,
fixation,canvas.Screen,0_5_13_0,2022-07-15T14:24:52.013Z,,,,,,9,499.9629999999888,timeout,,,0.485,,,,,,,,,,,,,,,,,0.53,false,128162.09999999404,128161.597,127661.565,127662.70000000298,127678.301,128178.264,,,
stimulus,canvas.Screen,0_5_13_1,2022-07-15T14:24:53.925Z,,,,,,9,1895.4360000029847,response,,0.485,0.485,,,https://raw.githubusercontent.com/carero2/loss-perception/main/png/0.485blue1yellowb%3D1w%3D100v%3D90.png,https://raw.githubusercontent.com/carero2/loss-perception/main/png/0.53blue1yellowb%3D1w%3D100v%3D90.png,,,,,,,,,true,f,keypress(f),0.53,0.53,false,130074.79999999702,130073.70000000298,128161.597,128162.29999999702,128178.264,130094.628,,,
choice,canvas.Screen,0_5_13_2,2022-07-15T14:24:55.929Z,,,,0.485,,9,1999.573000000004,timeout,,,0.485,,0.53,,,-3,,,,,,,-24,,,,,0.53,false,132078.09999999404,132077.539,130078.182,130078.39999999106,130094.628,132094.201,,76,
timeout,canvas.Screen,0_5_13_3,2022-07-15T14:24:55.930Z,,,,,,9,NaN,skipped,,,0.485,,,,,,,,,,,,,,,,,0.53,false,132079.39999999106,132077.539,,132079.09999999404,,132094.201,,,
ITI,canvas.Screen,0_5_13_4,2022-07-15T14:24:56.429Z,,,,,,9,499.9869999999937,timeout,,,0.485,,,,,,,,,,,,,,,,,0.53,false,132577.89999999106,132577.452,132077.539,132079.39999999106,132094.201,132594.188,,,
trial,flow.Sequence,0_5_13,2022-07-15T14:24:56.429Z,,,,,,9,4899.1509999999835,completion,,,0.485,,,,,,,,,,,,,,,,,0.53,false,132578.09999999404,132577.452,127661.565,127662.59999999404,127678.301,132594.188,,,
fixation,canvas.Screen,0_5_14_0,2022-07-15T14:24:56.929Z,,,,,,18,499.9120000000112,timeout,,,0.545,,,,,,,,,,,,,,,,,0.455,true,133078,133077.388,132577.452,132578.20000000298,132594.188,133094.1,,,
stimulus,canvas.Screen,0_5_14_1,2022-07-15T14:24:57.585Z,,,,,,18,639.6000000029744,response,,0.455,0.545,,,https://raw.githubusercontent.com/carero2/loss-perception/main/png/0.455blue1yellowb%3D1w%3D100v%3D16.png,https://raw.githubusercontent.com/carero2/loss-perception/main/png/0.545blue1yellowb%3D1w%3D100v%3D16.png,,,,,,,,,true,j,keypress(j),0.545,0.455,true,133734.79999999702,133733.70000000298,133077.388,133078.09999999404,133094.1,133743.933,,,
choice,canvas.Screen,0_5_14_2,2022-07-15T14:24:59.578Z,,,,0.545,,18,1999.6870000000054,timeout,,,0.545,,0.455,,,9,,,,,,,-15,,,,,0.455,true,135727.70000000298,135727.041,133727.939,133736.89999999106,133743.933,135743.62,,85,
timeout,canvas.Screen,0_5_14_3,2022-07-15T14:24:59.581Z,,,,,,18,NaN,skipped,,,0.545,,,,,,,,,,,,,,,,,0.455,true,135730,135727.041,,135729.79999999702,,135743.62,,,
ITI,canvas.Screen,0_5_14_4,2022-07-15T14:25:00.078Z,,,,,,18,499.99400000000605,timeout,,,0.545,,,,,,,,,,,,,,,,,0.455,true,136227.39999999106,136226.969,135727.041,135730.09999999404,135743.62,136243.614,,,
trial,flow.Sequence,0_5_14,2022-07-15T14:25:00.078Z,,,,,,18,3632.7810000000172,completion,,,0.545,,,,,,,,,,,,,,,,,0.455,true,136227.59999999404,136226.969,132577.452,132578.20000000298,132594.188,136243.614,,,
fixation,canvas.Screen,0_5_15_0,2022-07-15T14:25:00.578Z,,,,,,12,499.87099999998463,timeout,,,0.53,,,,,,,,,,,,,,,,,0.47,false,136727.29999999702,136726.823,136226.969,136227.79999999702,136243.614,136743.485,,,
stimulus,canvas.Screen,0_5_15_1,2022-07-15T14:25:02.541Z,,,,,,12,1946.1149999940535,response,,0.53,0.53,,,https://raw.githubusercontent.com/carero2/loss-perception/main/png/0.53blue1yellowb%3D1w%3D100v%3D44.png,https://raw.githubusercontent.com/carero2/loss-perception/main/png/0.47blue1yellowb%3D1w%3D100v%3D44.png,,,,,,,,,true,f,keypress(f),0.47,0.47,false,138690.20000000298,138689.59999999404,136726.823,136727.39999999106,136743.485,138693.15,,,
choice,canvas.Screen,0_5_15_2,2022-07-15T14:25:04.528Z,,,,0.53,,12,1999.6630000000005,timeout,,,0.53,,0.47,,,6,,,,,,,-9,,,,,0.47,false,140677.29999999702,140676.229,138676.328,138691.79999999702,138693.15,140692.813,,91,
timeout,canvas.Screen,0_5_15_3,2022-07-15T14:25:04.530Z,,,,,,12,NaN,skipped,,,0.53,,,,,,,,,,,,,,,,,0.47,false,140678.89999999106,140676.229,,140678.59999999404,,140692.813,,,
ITI,canvas.Screen,0_5_15_4,2022-07-15T14:25:05.027Z,,,,,,12,500.012000000017,timeout,,,0.53,,,,,,,,,,,,,,,,,0.47,false,141176.79999999702,141176.217,140676.229,140679.59999999404,140692.813,141192.825,,,
trial,flow.Sequence,0_5_15,2022-07-15T14:25:05.028Z,,,,,,12,4932.603000000003,completion,,,0.53,,,,,,,,,,,,,,,,,0.47,false,141176.89999999106,141176.217,136226.969,136227.79999999702,136243.614,141192.825,,,
fixation,canvas.Screen,0_5_16_0,2022-07-15T14:25:05.527Z,,,,,,6,499.79999999998836,timeout,,,0.545,,,,,,,,,,,,,,,,,0.515,true,141676.5,141675.95,141176.217,141177.09999999404,141192.825,141692.625,,,
stimulus,canvas.Screen,0_5_16_1,2022-07-15T14:25:07.111Z,,,,,,6,1567.0750000029802,response,,0.515,0.545,,,https://raw.githubusercontent.com/carero2/loss-perception/main/png/0.515blue1yellowb%3D1w%3D100v%3D75.png,https://raw.githubusercontent.com/carero2/loss-perception/main/png/0.545blue1yellowb%3D1w%3D100v%3D75.png,,,,,,,,,true,j,keypress(j),0.545,0.515,true,143260.39999999106,143259.70000000298,141675.95,141676.70000000298,141692.625,143275.722,,,
choice,canvas.Screen,0_5_16_2,2022-07-15T14:25:09.110Z,,,,0.545,,6,1999.6749999999884,timeout,,,0.545,,0.515,,,9,,,,,,,0,,,,,0.515,true,145259.20000000298,145258.751,143260.379,143262.09999999404,143275.722,145275.397,,100,
timeout,canvas.Screen,0_5_16_3,2022-07-15T14:25:09.111Z,,,,,,6,NaN,skipped,,,0.545,,,,,,,,,,,,,,,,,0.515,true,145260.70000000298,145258.751,,145260.59999999404,,145275.397,,,
ITI,canvas.Screen,0_5_16_4,2022-07-15T14:25:09.610Z,,,,,,6,499.9340000000084,timeout,,,0.545,,,,,,,,,,,,,,,,,0.515,true,145759.09999999404,145758.672,145258.751,145260.79999999702,145275.397,145775.331,,,
trial,flow.Sequence,0_5_16,2022-07-15T14:25:09.610Z,,,,,,6,4565.84699999998,completion,,,0.545,,,,,,,,,,,,,,,,,0.515,true,145759.5,145758.672,141176.217,141177.09999999404,141192.825,145775.331,,,
fixation,canvas.Screen,0_5_17_0,2022-07-15T14:25:10.110Z,,,,,,6,499.9229999999807,timeout,,,0.485,,,,,,,,,,,,,,,,,0.455,true,146259.09999999404,146258.581,145758.672,145759.59999999404,145775.331,146275.254,,,
stimulus,canvas.Screen,0_5_17_1,2022-07-15T14:25:11.066Z,,,,,,6,939.2460000000137,response,,0.455,0.485,,,https://raw.githubusercontent.com/carero2/loss-perception/main/png/0.455blue1yellowb%3D1w%3D100v%3D48.png,https://raw.githubusercontent.com/carero2/loss-perception/main/png/0.485blue1yellowb%3D1w%3D100v%3D48.png,,,,,,,,,true,j,keypress(j),0.485,0.455,true,147215.20000000298,147214.5,146258.581,146259.39999999106,146275.254,147225.107,,,
choice,canvas.Screen,0_5_17_2,2022-07-15T14:25:13.059Z,,,,0.485,,6,1999.689000000013,timeout,,,0.485,,0.455,,,-3,,,,,,,-3,,,,,0.455,true,149208.79999999702,149208.197,147208.467,147217.79999999702,147225.107,149224.796,,97,
timeout,canvas.Screen,0_5_17_3,2022-07-15T14:25:13.061Z,,,,,,6,NaN,skipped,,,0.485,,,,,,,,,,,,,,,,,0.455,true,149210,149208.197,,149209.79999999702,,149224.796,,,
ITI,canvas.Screen,0_5_17_4,2022-07-15T14:25:13.559Z,,,,,,6,499.99299999998766,timeout,,,0.485,,,,,,,,,,,,,,,,,0.455,true,149708.59999999404,149708.108,149208.197,149210,149224.796,149724.789,,,
trial,flow.Sequence,0_5_17,2022-07-15T14:25:13.560Z,,,,,,6,3932.777000000002,completion,,,0.485,,,,,,,,,,,,,,,,,0.455,true,149708.79999999702,149708.108,145758.672,145759.59999999404,145775.331,149724.789,,,
fixation,canvas.Screen,0_5_18_0,2022-07-15T14:25:14.059Z,,,,,,12,499.8300000000163,timeout,,,0.53,,,,,,,,,,,,,,,,,0.47,false,150208.59999999404,150208.035,149708.108,149709,149724.789,150224.619,,,
stimulus,canvas.Screen,0_5_18_1,2022-07-15T14:25:15.303Z,,,,,,12,1225.0810000029742,response,,0.53,0.53,,,https://raw.githubusercontent.com/carero2/loss-perception/main/png/0.53blue1yellowb%3D1w%3D100v%3D35.png,https://raw.githubusercontent.com/carero2/loss-perception/main/png/0.47blue1yellowb%3D1w%3D100v%3D35.png,,,,,,,,,true,f,keypress(f),0.47,0.47,false,151452.09999999404,151449.70000000298,150208.035,150208.70000000298,150224.619,151457.709,,,
choice,canvas.Screen,0_5_18_2,2022-07-15T14:25:17.292Z,,,,0.53,,12,1999.8369999999995,timeout,,,0.53,,0.47,,,6,,,,,,,3,,,,,0.47,false,153441.5,153440.854,151442.104,151453.79999999702,151457.709,153457.546,,103,
timeout,canvas.Screen,0_5_18_3,2022-07-15T14:25:17.294Z,,,,,,12,NaN,skipped,,,0.53,,,,,,,,,,,,,,,,,0.47,false,153442.89999999106,153440.854,,153442.79999999702,,153457.546,,,
ITI,canvas.Screen,0_5_18_4,2022-07-15T14:25:17.792Z,,,,,,12,499.88999999998487,timeout,,,0.53,,,,,,,,,,,,,,,,,0.47,false,153941.29999999702,153940.756,153440.854,153443,153457.546,153957.436,,,
trial,flow.Sequence,0_5_18,2022-07-15T14:25:17.792Z,,,,,,12,4215.967000000004,completion,,,0.53,,,,,,,,,,,,,,,,,0.47,false,153941.59999999404,153940.756,149708.108,149709,149724.789,153957.436,,,
fixation,canvas.Screen,0_5_19_0,2022-07-15T14:25:18.292Z,,,,,,6,499.8179999999993,timeout,,,0.485,,,,,,,,,,,,,,,,,0.455,true,154441.29999999702,154440.682,153940.756,153941.70000000298,153957.436,154457.254,,,
stimulus,canvas.Screen,0_5_19_1,2022-07-15T14:25:19.667Z,,,,,,6,1357.7460000000137,response,,0.455,0.485,,,https://raw.githubusercontent.com/carero2/loss-perception/main/png/0.455blue1yellowb%3D1w%3D100v%3D18.png,https://raw.githubusercontent.com/carero2/loss-perception/main/png/0.485blue1yellowb%3D1w%3D100v%3D18.png,,,,,,,,,true,j,keypress(j),0.485,0.455,true,155816.09999999404,155815,154440.682,154441.29999999702,154457.254,155823.677,,,
choice,canvas.Screen,0_5_19_2,2022-07-15T14:25:21.658Z,,,,0.485,,6,1999.7810000000172,timeout,,,0.485,,0.455,,,-3,,,,,,,0,,,,,0.455,true,157807.20000000298,157806.728,155806.779,155818.09999999404,155823.677,157823.458,,100,
timeout,canvas.Screen,0_5_19_3,2022-07-15T14:25:21.659Z,,,,,,6,NaN,skipped,,,0.485,,,,,,,,,,,,,,,,,0.455,true,157808.5,157806.728,,157808.39999999106,,157823.458,,,
ITI,canvas.Screen,0_5_19_4,2022-07-15T14:25:22.158Z,,,,,,6,499.920999999973,timeout,,,0.485,,,,,,,,,,,,,,,,,0.455,true,158307.09999999404,158306.671,157806.728,157808.59999999404,157823.458,158323.379,,,
trial,flow.Sequence,0_5_19,2022-07-15T14:25:22.158Z,,,,,,6,4349.235000000015,completion,,,0.485,,,,,,,,,,,,,,,,,0.455,true,158307.29999999702,158306.671,153940.756,153941.59999999404,153957.436,158323.379,,,
fixation,canvas.Screen,0_5_20_0,2022-07-15T14:25:22.658Z,,,,,,9,499.91600000002654,timeout,,,0.485,,,,,,,,,,,,,,,,,0.53,true,158807.09999999404,158806.593,158306.671,158307.39999999106,158323.379,158823.295,,,
stimulus,canvas.Screen,0_5_20_1,2022-07-15T14:25:24.597Z,,,,,,9,1922.2049999999872,response,,0.53,0.485,,,https://raw.githubusercontent.com/carero2/loss-perception/main/png/0.53blue1yellowb%3D1w%3D100v%3D89.png,https://raw.githubusercontent.com/carero2/loss-perception/main/png/0.485blue1yellowb%3D1w%3D100v%3D89.png,,,,,,,,,true,f,keypress(f),0.485,0.53,true,160746.5,160745.5,158806.593,158807.29999999702,158823.295,160756.208,,,
choice,canvas.Screen,0_5_20_2,2022-07-15T14:25:26.591Z,,,,0.53,,9,1999.7939999999944,timeout,,,0.485,,0.485,,,6,,,,,,,6,,,,,0.53,true,162739.89999999106,162739.343,160740.798,160748.09999999404,160756.208,162756.002,,106,
timeout,canvas.Screen,0_5_20_3,2022-07-15T14:25:26.592Z,,,,,,9,NaN,skipped,,,0.485,,,,,,,,,,,,,,,,,0.53,true,162741,162739.343,,162740.79999999702,,162756.002,,,
ITI,canvas.Screen,0_5_20_4,2022-07-15T14:25:27.090Z,,,,,,9,499.9429999999993,timeout,,,0.485,,,,,,,,,,,,,,,,,0.53,true,163239.79999999702,163239.284,162739.343,162741.09999999404,162756.002,163255.945,,,
trial,flow.Sequence,0_5_20,2022-07-15T14:25:27.091Z,,,,,,9,4915.905000000028,completion,,,0.485,,,,,,,,,,,,,,,,,0.53,true,163240,163239.284,158306.671,158307.39999999106,158323.379,163255.945,,,
fixation,canvas.Screen,0_5_21_0,2022-07-15T14:25:27.590Z,,,,,,18,499.88300000000163,timeout,,,0.545,,,,,,,,,,,,,,,,,0.455,true,163739.59999999404,163739.196,163239.284,163240.20000000298,163255.945,163755.828,,,
stimulus,canvas.Screen,0_5_21_1,2022-07-15T14:25:28.837Z,,,,,,18,1229.9719999970112,response,,0.455,0.545,,,https://raw.githubusercontent.com/carero2/loss-perception/main/png/0.455blue1yellowb%3D1w%3D100v%3D72.png,https://raw.githubusercontent.com/carero2/loss-perception/main/png/0.545blue1yellowb%3D1w%3D100v%3D72.png,,,,,,,,,true,j,keypress(j),0.545,0.455,true,164986.29999999702,164985.79999999702,163739.196,163739.79999999702,163755.828,165005.554,,,
choice,canvas.Screen,0_5_21_2,2022-07-15T14:25:30.840Z,,,,0.545,,18,1999.7569999999832,timeout,,,0.545,,0.455,,,9,,,,,,,15,,,,,0.455,true,166989.29999999702,166988.658,164972.325,164988.70000000298,165005.554,167005.311,,115,
timeout,canvas.Screen,0_5_21_3,2022-07-15T14:25:30.841Z,,,,,,18,NaN,skipped,,,0.545,,,,,,,,,,,,,,,,,0.455,true,166990.5,166988.658,,166990.29999999702,,167005.311,,,
ITI,canvas.Screen,0_5_21_4,2022-07-15T14:25:31.340Z,,,,,,18,499.88200000001234,timeout,,,0.545,,,,,,,,,,,,,,,,,0.455,true,167489,167488.587,166988.658,166990.59999999404,167005.311,167505.193,,,
trial,flow.Sequence,0_5_21,2022-07-15T14:25:31.340Z,,,,,,18,4232.641999999993,completion,,,0.545,,,,,,,,,,,,,,,,,0.455,true,167489.29999999702,167488.587,163239.284,163240.09999999404,163255.945,167505.193,,,
fixation,canvas.Screen,0_5_22_0,2022-07-15T14:25:31.840Z,,,,,,6,499.9759999999951,timeout,,,0.545,,,,,,,,,,,,,,,,,0.515,true,167989,167988.496,167488.587,167489.39999999106,167505.193,168005.169,,,
stimulus,canvas.Screen,0_5_22_1,2022-07-15T14:25:32.658Z,,,,,,6,801.3310000000056,response,,0.515,0.545,,,https://raw.githubusercontent.com/carero2/loss-perception/main/png/0.515blue1yellowb%3D1w%3D100v%3D80.png,https://raw.githubusercontent.com/carero2/loss-perception/main/png/0.545blue1yellowb%3D1w%3D100v%3D80.png,,,,,,,,,true,j,keypress(j),0.545,0.515,true,168807.59999999404,168806.5,167988.496,167989.20000000298,168005.169,168821.625,,,
choice,canvas.Screen,0_5_22_2,2022-07-15T14:25:34.656Z,,,,0.545,,6,1999.7520000000077,timeout,,,0.545,,0.515,,,9,,,,,,,24,,,,,0.515,true,170805.29999999702,170804.691,168805.495,168810.70000000298,168821.625,170821.377,,124,
timeout,canvas.Screen,0_5_22_3,2022-07-15T14:25:34.657Z,,,,,,6,NaN,skipped,,,0.545,,,,,,,,,,,,,,,,,0.515,true,170806.39999999106,170804.691,,170806.20000000298,,170821.377,,,
ITI,canvas.Screen,0_5_22_4,2022-07-15T14:25:35.156Z,,,,,,6,499.9059999999881,timeout,,,0.545,,,,,,,,,,,,,,,,,0.515,true,171305.59999999404,171304.633,170804.691,170806.5,170821.377,171321.283,,,
trial,flow.Sequence,0_5_22,2022-07-15T14:25:35.157Z,,,,,,6,3799.4400000000023,completion,,,0.545,,,,,,,,,,,,,,,,,0.515,true,171305.89999999106,171304.633,167488.587,167489.39999999106,167505.193,171321.283,,,
fixation,canvas.Screen,0_5_23_0,2022-07-15T14:25:35.656Z,,,,,,6,499.93900000001304,timeout,,,0.515,,,,,,,,,,,,,,,,,0.485,false,171805,171804.546,171304.633,171306,171321.283,171821.222,,,
stimulus,canvas.Screen,0_5_23_1,2022-07-15T14:25:37.031Z,,,,,,6,1349.6779999910505,response,,0.515,0.515,,,https://raw.githubusercontent.com/carero2/loss-perception/main/png/0.515blue1yellowb%3D1w%3D100v%3D29.png,https://raw.githubusercontent.com/carero2/loss-perception/main/png/0.485blue1yellowb%3D1w%3D100v%3D29.png,,,,,,,,,true,f,keypress(f),0.485,0.485,false,173180.20000000298,173170.89999999106,171804.546,171805.09999999404,171821.222,173187.55,,,
choice,canvas.Screen,0_5_23_2,2022-07-15T14:25:39.022Z,,,,0.515,,6,1999.6940000000177,timeout,,,0.515,,0.485,,,3,,,,,,,27,,,,,0.485,false,175171.20000000298,175170.675,173170.864,173182.29999999702,173187.55,175187.244,,127,
timeout,canvas.Screen,0_5_23_3,2022-07-15T14:25:39.023Z,,,,,,6,NaN,skipped,,,0.515,,,,,,,,,,,,,,,,,0.485,false,175172.79999999702,175170.675,,175172.59999999404,,175187.244,,,
ITI,canvas.Screen,0_5_23_4,2022-07-15T14:25:39.522Z,,,,,,6,499.92799999998533,timeout,,,0.515,,,,,,,,,,,,,,,,,0.485,false,175671.29999999702,175670.536,175170.675,175172.89999999106,175187.244,175687.172,,,
trial,flow.Sequence,0_5_23,2022-07-15T14:25:39.522Z,,,,,,6,4349.252999999997,completion,,,0.515,,,,,,,,,,,,,,,,,0.485,false,175671.59999999404,175670.536,171304.633,171306,171321.283,175687.172,,,
pratice,flow.Loop,0_5,2022-07-15T14:25:39.522Z,,,,,,,98317.502,completion,,,,,,,,,,,,,,,,,,,,,,175671.79999999702,175670.536,77336.345,77353.89999999106,77353.034,175687.172,,,
show amount,html.Screen,0_6,2022-07-15T14:25:49.430Z,,,,,,,9890.028000002989,response,,,,,,,,,,,,,,,,,Continue,click #Continue,,,,185579.09999999404,185577.20000000298,175670.536,175672.89999999106,175687.172,185585.604,,,
first block,canvas.Screen,0_7,2022-07-15T14:25:55.973Z,,,,,,,6535.896000000008,response,,,,,,,,,,,,,,,,,space,keypress(Space),,,,192122.09999999404,192121.5,185569.019,185579.09999999404,185585.604,192134.524,,,
fixation,canvas.Screen,0_8_0_0,2022-07-15T14:25:56.469Z,,,,,,6,733.179999999993,timeout,,,0.545,,,,,,,,,,,,,,,,,0.515,true,192618.5,192617.774,192117.92,192122.29999999702,192134.524,192867.704,,,
stimulus,canvas.Screen,0_8_0_1,2022-07-15T14:25:57.654Z,,,,,,6,934.7960000000021,response,,0.515,0.545,,,https://raw.githubusercontent.com/carero2/loss-perception/main/png/0.515blue1yellowb%3D1w%3D100v%3D69.png,https://raw.githubusercontent.com/carero2/loss-perception/main/png/0.545blue1yellowb%3D1w%3D100v%3D69.png,,,,,,,,,true,j,keypress(j),0.545,0.515,true,193803.39999999106,193802.5,192617.774,192876,192867.704,193834.256,,,
choice,canvas.Screen,0_8_0_2,2022-07-15T14:25:58.669Z,,,,0.545,,6,999.8330000000133,timeout,,,0.545,,0.515,,,9,9,,,,,,,,,,,0.515,true,194818,194817.379,193817.676,193818.29999999702,193834.256,194834.089,109,,
ITI,canvas.Screen,0_8_0_3,2022-07-15T14:25:59.169Z,,,2803,,,6,499.8859999999986,timeout,,,0.545,,,,,,,,,,,,,,,,,0.515,true,195318,195317.407,194817.379,194818.20000000298,194834.089,195333.975,,,
trial,flow.Sequence,0_8_0,2022-07-15T14:25:59.169Z,,,,,,6,3182.8830000000016,completion,,,0.545,,,,,,,,,,,,,,,,,0.515,true,195318.39999999106,195317.407,192117.92,192122.29999999702,192134.524,195333.975,,,
fixation,canvas.Screen,0_8_1_0,2022-07-15T14:25:59.669Z,,,,,,4,683.3409999999858,timeout,,,0.51,,,,,,,,,,,,,,,,,0.49,false,195817.89999999106,195817.334,195317.407,195318.5,195333.975,196017.316,,,
stimulus,canvas.Screen,0_8_1_1,2022-07-15T14:26:01.575Z,,,,,,4,1704.5839999910677,response,,0.51,0.51,,,https://raw.githubusercontent.com/carero2/loss-perception/main/png/0.51blue1yellowb%3D1w%3D100v%3D85.png,https://raw.githubusercontent.com/carero2/loss-perception/main/png/0.49blue1yellowb%3D1w%3D100v%3D85.png,,,,,,,,,true,f,keypress(f),0.49,0.49,false,197724.20000000298,197721.89999999106,195817.334,196025.20000000298,196017.316,197750.273,,,
choice,canvas.Screen,0_8_1_2,2022-07-15T14:26:02.585Z,,,,0.51,,4,999.9630000000179,timeout,,,0.51,,0.49,,,2,11,,,,,,,,,,,0.49,false,198734.20000000298,198733.528,197734.343,197739.5,197750.273,198750.236,111,,
ITI,canvas.Screen,0_8_1_3,2022-07-15T14:26:03.085Z,,,2821,,,4,499.7719999999972,timeout,,,0.51,,,,,,,,,,,,,,,,,0.49,false,199234,199233.462,198733.528,198734.39999999106,198750.236,199250.008,,,
trial,flow.Sequence,0_8_1,2022-07-15T14:26:03.085Z,,,,,,4,3899.4869999999937,completion,,,0.51,,,,,,,,,,,,,,,,,0.49,false,199234.29999999702,199233.462,195317.407,195318.39999999106,195333.975,199250.008,,,
fixation,canvas.Screen,0_8_2_0,2022-07-15T14:26:03.585Z,,,,,,6,683.2829999999958,timeout,,,0.485,,,,,,,,,,,,,,,,,0.455,true,199734.5,199733.376,199233.462,199234.59999999404,199250.008,199933.291,,,
stimulus,canvas.Screen,0_8_2_1,2022-07-15T14:26:05.013Z,,,,,,6,1228.7090000000026,response,,0.455,0.485,,,https://raw.githubusercontent.com/carero2/loss-perception/main/png/0.455blue1yellowb%3D1w%3D100v%3D74.png,https://raw.githubusercontent.com/carero2/loss-perception/main/png/0.485blue1yellowb%3D1w%3D100v%3D74.png,,,,,,,,,true,j,keypress(j),0.485,0.455,true,201162.70000000298,201162,199733.376,199941.59999999404,199933.291,201183.087,,,
choice,canvas.Screen,0_8_2_2,2022-07-15T14:26:06.018Z,,,,0.485,,6,999.8789999999863,timeout,,,0.485,,0.455,,,-3,8,,,,,,,,,,,0.455,true,202167.59999999404,202166.211,201166.663,201177.59999999404,201183.087,202182.966,108,,
ITI,canvas.Screen,0_8_2_3,2022-07-15T14:26:06.518Z,,,2056,,,6,499.87000000002445,timeout,,,0.485,,,,,,,,,,,,,,,,,0.455,true,202666.79999999702,202666.272,202166.211,202168,202182.966,202682.836,,,
trial,flow.Sequence,0_8_2,2022-07-15T14:26:06.518Z,,,,,,6,3416.2639999999956,completion,,,0.485,,,,,,,,,,,,,,,,,0.455,true,202667,202666.272,199233.462,199234.5,199250.008,202682.836,,,
fixation,canvas.Screen,0_8_3_0,2022-07-15T14:26:07.017Z,,,,,,4,716.5080000000016,timeout,,,0.53,,,,,,,,,,,,,,,,,0.51,true,203166.59999999404,203166.094,202666.272,202667.20000000298,202682.836,203399.344,,,
stimulus,canvas.Screen,0_8_3_1,2022-07-15T14:26:08.115Z,,,,,,4,863.8560000029684,response,,0.51,0.53,,,https://raw.githubusercontent.com/carero2/loss-perception/main/png/0.51blue1yellowb%3D1w%3D100v%3D96.png,https://raw.githubusercontent.com/carero2/loss-perception/main/png/0.53blue1yellowb%3D1w%3D100v%3D96.png,,,,,,,,,true,j,keypress(j),0.53,0.51,true,204263.89999999106,204263.20000000298,203166.094,203408.59999999404,203399.344,204299.219,,,
choice,canvas.Screen,0_8_3_2,2022-07-15T14:26:09.134Z,,,,0.53,,4,999.8489999999874,timeout,,,0.53,,0.51,,,6,14,,,,,,,,,,,0.51,true,205283.09999999404,205282.403,204282.87,204295,204299.219,205299.068,114,,
ITI,canvas.Screen,0_8_3_3,2022-07-15T14:26:09.634Z,,,2228,,,4,499.88300000000163,timeout,,,0.53,,,,,,,,,,,,,,,,,0.51,true,205783,205782.385,205282.403,205283.29999999702,205299.068,205798.951,,,
trial,flow.Sequence,0_8_3,2022-07-15T14:26:09.634Z,,,,,,4,3099.548999999999,completion,,,0.53,,,,,,,,,,,,,,,,,0.51,true,205783.29999999702,205782.385,202666.272,202667.20000000298,202682.836,205798.951,,,
fixation,canvas.Screen,0_8_4_0,2022-07-15T14:26:10.133Z,,,,,,2,716.5659999999916,timeout,,,0.515,,,,,,,,,,,,,,,,,0.505,true,206282.79999999702,206282.231,205782.385,205783.39999999106,205798.951,206515.517,,,
stimulus,canvas.Screen,0_8_4_1,2022-07-15T14:26:12.339Z,,,,,,2,1972.082999994047,response,,0.505,0.515,,,https://raw.githubusercontent.com/carero2/loss-perception/main/png/0.505blue1yellowb%3D1w%3D100v%3D42.png,https://raw.githubusercontent.com/carero2/loss-perception/main/png/0.515blue1yellowb%3D1w%3D100v%3D42.png,,,,,,,,,true,j,keypress(j),0.515,0.505,true,208488.5,208487.59999999404,206282.231,206523.79999999702,206515.517,208515.194,,,
choice,canvas.Screen,0_8_4_2,2022-07-15T14:26:13.350Z,,,,0.515,,2,999.8940000000002,timeout,,,0.515,,0.505,,,3,17,,,,,,,,,,,0.505,true,209499.09999999404,209498.457,208499.111,208505,208515.194,209515.088,117,,
ITI,canvas.Screen,0_8_4_3,2022-07-15T14:26:13.850Z,,,2791,,,2,499.97000000000116,timeout,,,0.515,,,,,,,,,,,,,,,,,0.505,true,209999.29999999702,209998.369,209498.457,209499.20000000298,209515.088,210015.058,,,
trial,flow.Sequence,0_8_4,2022-07-15T14:26:13.850Z,,,,,,2,4199.418000000005,completion,,,0.515,,,,,,,,,,,,,,,,,0.505,true,209999.59999999404,209998.369,205782.385,205783.29999999702,205798.951,210015.058,,,
fixation,canvas.Screen,0_8_5_0,2022-07-15T14:26:14.350Z,,,,,,6,516.5690000000177,timeout,,,0.515,,,,,,,,,,,,,,,,,0.485,true,210498.79999999702,210498.284,209998.369,209999.79999999702,210015.058,210531.627,,,
stimulus,canvas.Screen,0_8_5_1,2022-07-15T14:26:15.450Z,,,,,,6,1066.9729999940319,response,,0.485,0.515,,,https://raw.githubusercontent.com/carero2/loss-perception/main/png/0.485blue1yellowb%3D1w%3D100v%3D41.png,https://raw.githubusercontent.com/carero2/loss-perception/main/png/0.515blue1yellowb%3D1w%3D100v%3D41.png,,,,,,,,,true,f,keypress(f),0.515,0.485,true,211599.20000000298,211598.59999999404,210498.284,210546.29999999702,210531.627,211643.397,,,
choice,canvas.Screen,0_8_5_2,2022-07-15T14:26:16.483Z,,,,0.485,,6,1004.4599999999919,timeout,,,0.515,,0.515,,,-3,14,,,,,,,,,,,0.485,true,212632.29999999702,212631.211,211598.329,211614,211643.397,212647.857,114,,
ITI,canvas.Screen,0_8_5_3,2022-07-15T14:26:16.982Z,,,2260,,,6,499.945000000007,timeout,,,0.515,,,,,,,,,,,,,,,,,0.485,true,213131.70000000298,213131.152,212631.211,212632.39999999106,212647.857,213147.802,,,
trial,flow.Sequence,0_8_5,2022-07-15T14:26:16.983Z,,,,,,6,3116.094000000012,completion,,,0.515,,,,,,,,,,,,,,,,,0.485,true,213132,213131.152,209998.369,209999.79999999702,210015.058,213147.802,,,
fixation,canvas.Screen,0_8_6_0,2022-07-15T14:26:17.482Z,,,,,,2,683.3239999999932,timeout,,,0.495,,,,,,,,,,,,,,,,,0.485,true,213631.5,213631.035,213131.152,213132.09999999404,213147.802,213831.126,,,
stimulus,canvas.Screen,0_8_6_1,2022-07-15T14:26:18.539Z,,,,,,2,856.8740000000107,response,,0.485,0.495,,,https://raw.githubusercontent.com/carero2/loss-perception/main/png/0.485blue1yellowb%3D1w%3D100v%3D42.png,https://raw.githubusercontent.com/carero2/loss-perception/main/png/0.495blue1yellowb%3D1w%3D100v%3D42.png,,,,,,,,,true,j,keypress(j),0.495,0.485,true,214688.59999999404,214688,213631.035,213840,213831.126,214714.214,,,
choice,canvas.Screen,0_8_6_2,2022-07-15T14:26:19.549Z,,,,0.495,,2,999.8530000000028,timeout,,,0.495,,0.485,,,-1,13,,,,,,,,,,,0.485,true,215698.09999999404,215697.471,214697.767,214702.20000000298,214714.214,215714.067,113,,
ITI,canvas.Screen,0_8_6_3,2022-07-15T14:26:20.049Z,,,2011,,,2,499.9789999999921,timeout,,,0.495,,,,,,,,,,,,,,,,,0.485,true,216198,216197.375,215697.471,215698.20000000298,215714.067,216214.046,,,
trial,flow.Sequence,0_8_6,2022-07-15T14:26:20.049Z,,,,,,2,3049.573000000004,completion,,,0.495,,,,,,,,,,,,,,,,,0.485,true,216198.5,216197.375,213131.152,213132,213147.802,216214.046,,,
fixation,canvas.Screen,0_8_7_0,2022-07-15T14:26:20.548Z,,,,,,4,666.5620000000054,timeout,,,0.49,,,,,,,,,,,,,,,,,0.47,true,216697.79999999702,216697.297,216197.375,216198.59999999404,216214.046,216880.608,,,
stimulus,canvas.Screen,0_8_7_1,2022-07-15T14:26:21.544Z,,,,,,4,812.1919999970123,response,,0.47,0.49,,,https://raw.githubusercontent.com/carero2/loss-perception/main/png/0.47blue1yellowb%3D1w%3D100v%3D61.png,https://raw.githubusercontent.com/carero2/loss-perception/main/png/0.49blue1yellowb%3D1w%3D100v%3D61.png,,,,,,,,,true,f,keypress(f),0.49,0.47,true,217693.70000000298,217692.79999999702,216697.297,216887.89999999106,216880.608,217713.691,,,
choice,canvas.Screen,0_8_7_2,2022-07-15T14:26:22.548Z,,,,0.47,,4,999.8509999999951,timeout,,,0.49,,0.49,,,-6,7,,,,,,,,,,,0.47,true,218697.29999999702,218696.936,217697.336,217709.79999999702,217713.691,218713.542,107,,
ITI,canvas.Screen,0_8_7_3,2022-07-15T14:26:23.048Z,,,2084,,,4,499.9630000000179,timeout,,,0.49,,,,,,,,,,,,,,,,,0.47,true,219197.5,219196.908,218696.936,218697.5,218713.542,219213.505,,,
trial,flow.Sequence,0_8_7,2022-07-15T14:26:23.049Z,,,,,,4,2982.8619999999937,completion,,,0.49,,,,,,,,,,,,,,,,,0.47,true,219197.89999999106,219196.908,216197.375,216198.59999999404,216214.046,219213.505,,,
fixation,canvas.Screen,0_8_8_0,2022-07-15T14:26:23.548Z,,,,,,2,699.9530000000086,timeout,,,0.505,,,,,,,,,,,,,,,,,0.495,true,219697.29999999702,219696.804,219196.908,219198.09999999404,219213.505,219913.458,,,
stimulus,canvas.Screen,0_8_8_1,2022-07-15T14:26:25.560Z,,,,,,2,1793.941999991046,response,,0.495,0.505,,,https://raw.githubusercontent.com/carero2/loss-perception/main/png/0.495blue1yellowb%3D1w%3D100v%3D81.png,https://raw.githubusercontent.com/carero2/loss-perception/main/png/0.505blue1yellowb%3D1w%3D100v%3D81.png,,,,,,,,,true,j,keypress(j),0.505,0.495,true,221709.29999999702,221707.39999999106,219696.804,219921.79999999702,219913.458,221729.706,,,
choice,canvas.Screen,0_8_8_2,2022-07-15T14:26:26.564Z,,,,0.505,,2,999.8479999999981,timeout,,,0.505,,0.495,,,1,8,,,,,,,,,,,0.495,true,222713.39999999106,222712.882,221713.769,221725.39999999106,221729.706,222729.554,108,,
ITI,canvas.Screen,0_8_8_3,2022-07-15T14:26:27.064Z,,,2835,,,2,499.9349999999977,timeout,,,0.505,,,,,,,,,,,,,,,,,0.495,true,223213.5,223212.868,222712.882,222713.59999999404,222729.554,223229.489,,,
trial,flow.Sequence,0_8_8,2022-07-15T14:26:27.064Z,,,,,,2,3999.362999999983,completion,,,0.505,,,,,,,,,,,,,,,,,0.495,true,223213.79999999702,223212.868,219196.908,219198.09999999404,219213.505,223229.489,,,
fixation,canvas.Screen,0_8_9_0,2022-07-15T14:26:27.564Z,,,,,,6,666.630999999994,timeout,,,0.515,,,,,,,,,,,,,,,,,0.485,false,223713.29999999702,223712.743,223212.868,223214,223229.489,223896.12,,,
stimulus,canvas.Screen,0_8_9_1,2022-07-15T14:26:28.620Z,,,,,,6,872.6799999970244,response,,0.515,0.515,,,https://raw.githubusercontent.com/carero2/loss-perception/main/png/0.515blue1yellowb%3D1w%3D100v%3D84.png,https://raw.githubusercontent.com/carero2/loss-perception/main/png/0.485blue1yellowb%3D1w%3D100v%3D84.png,,,,,,,,,true,j,keypress(j),0.485,0.485,false,224769.39999999106,224768.79999999702,223712.743,223905.5,223896.12,224795.934,,,
choice,canvas.Screen,0_8_9_2,2022-07-15T14:26:29.630Z,,,,0.485,,6,999.929999999993,timeout,,,0.515,,0.515,,,-3,5,,,,,,,,,,,0.485,false,225779.70000000298,225779.088,224779.464,224785.29999999702,224795.934,225795.864,105,,
ITI,canvas.Screen,0_8_9_3,2022-07-15T14:26:30.130Z,,,2595,,,6,499.82500000001164,timeout,,,0.515,,,,,,,,,,,,,,,,,0.485,false,226279.5,226279.015,225779.088,225779.89999999106,225795.864,226295.689,,,
trial,flow.Sequence,0_8_9,2022-07-15T14:26:30.130Z,,,,,,6,3049.5260000000126,completion,,,0.515,,,,,,,,,,,,,,,,,0.485,false,226279.79999999702,226279.015,223212.868,223213.89999999106,223229.489,226295.689,,,
fixation,canvas.Screen,0_8_10_0,2022-07-15T14:26:30.630Z,,,,,,6,683.2859999999928,timeout,,,0.485,,,,,,,,,,,,,,,,,0.455,false,226779.59999999404,226778.926,226279.015,226279.79999999702,226295.689,226978.975,,,
stimulus,canvas.Screen,0_8_10_1,2022-07-15T14:26:31.321Z,,,,,,6,490.4249999910535,response,,0.485,0.485,,,https://raw.githubusercontent.com/carero2/loss-perception/main/png/0.485blue1yellowb%3D1w%3D100v%3D14.png,https://raw.githubusercontent.com/carero2/loss-perception/main/png/0.455blue1yellowb%3D1w%3D100v%3D14.png,,,,,,,,,true,f,keypress(f),0.455,0.455,false,227470.20000000298,227469.39999999106,226778.926,226987.29999999702,226978.975,227495.462,,,
choice,canvas.Screen,0_8_10_2,2022-07-15T14:26:32.330Z,,,,0.485,,6,999.877999999997,timeout,,,0.485,,0.455,,,-3,2,,,,,,,,,,,0.455,false,228479.29999999702,228478.747,227478.955,227487.29999999702,227495.462,228495.34,102,,
ITI,canvas.Screen,0_8_10_3,2022-07-15T14:26:32.830Z,,,2338,,,6,499.8640000000014,timeout,,,0.485,,,,,,,,,,,,,,,,,0.455,false,228979.29999999702,228978.545,228478.747,228479.5,228495.34,228995.204,,,
trial,flow.Sequence,0_8_10,2022-07-15T14:26:32.830Z,,,,,,6,2682.8559999999998,completion,,,0.485,,,,,,,,,,,,,,,,,0.455,false,228979.39999999106,228978.545,226279.015,226279.79999999702,226295.689,228995.204,,,
fixation,canvas.Screen,0_8_11_0,2022-07-15T14:26:33.330Z,,,,,,4,683.3260000000009,timeout,,,0.49,,,,,,,,,,,,,,,,,0.47,false,229479.09999999404,229478.571,228978.545,228979.59999999404,228995.204,229678.53,,,
stimulus,canvas.Screen,0_8_11_1,2022-07-15T14:26:34.270Z,,,,,,4,739.9700000000012,response,,0.49,0.49,,,https://raw.githubusercontent.com/carero2/loss-perception/main/png/0.49blue1yellowb%3D1w%3D100v%3D26.png,https://raw.githubusercontent.com/carero2/loss-perception/main/png/0.47blue1yellowb%3D1w%3D100v%3D26.png,,,,,,,,,true,f,keypress(f),0.47,0.47,false,230419.20000000298,230418.5,229478.571,229686.29999999702,229678.53,230444.961,,,
choice,canvas.Screen,0_8_11_2,2022-07-15T14:26:35.279Z,,,,0.49,,4,999.8989999999758,timeout,,,0.49,,0.47,,,-2,0,,,,,,,,,,,0.47,false,231428.79999999702,231428.261,230428.679,230436.39999999106,230444.961,231444.86,100,,
ITI,canvas.Screen,0_8_11_3,2022-07-15T14:26:35.779Z,,,2685,,,4,499.89100000000326,timeout,,,0.49,,,,,,,,,,,,,,,,,0.47,false,231928.59999999404,231928.103,231428.261,231429,231444.86,231944.751,,,
trial,flow.Sequence,0_8_11,2022-07-15T14:26:35.780Z,,,,,,4,2932.899000000005,completion,,,0.49,,,,,,,,,,,,,,,,,0.47,false,231928.89999999106,231928.103,228978.545,228979.5,228995.204,231944.751,,,
fixation,canvas.Screen,0_8_12_0,2022-07-15T14:26:36.279Z,,,,,,4,733.2520000000077,timeout,,,0.51,,,,,,,,,,,,,,,,,0.49,true,232428.59999999404,232428.03,231928.103,231929.09999999404,231944.751,232678.003,,,
stimulus,canvas.Screen,0_8_12_1,2022-07-15T14:26:37.285Z,,,,,,4,755.3969999910623,response,,0.49,0.51,,,https://raw.githubusercontent.com/carero2/loss-perception/main/png/0.49blue1yellowb%3D1w%3D100v%3D1.png,https://raw.githubusercontent.com/carero2/loss-perception/main/png/0.51blue1yellowb%3D1w%3D100v%3D1.png,,,,,,,,,true,j,keypress(j),0.51,0.49,true,233434.39999999106,233433.39999999106,232428.03,232685.59999999404,232678.003,233461.273,,,
choice,canvas.Screen,0_8_12_2,2022-07-15T14:26:38.296Z,,,,0.51,,4,999.7230000000272,timeout,,,0.51,,0.49,,,2,2,,,,,,,,,,,0.49,true,234445,234444.392,233444.861,233452.5,233461.273,234460.996,102,,
ITI,canvas.Screen,0_8_12_3,2022-07-15T14:26:38.796Z,,,2241,,,4,499.9659999999858,timeout,,,0.51,,,,,,,,,,,,,,,,,0.49,true,234944.89999999106,234944.337,234444.392,234445.09999999404,234460.996,234960.962,,,
trial,flow.Sequence,0_8_12,2022-07-15T14:26:38.796Z,,,,,,4,2999.5860000000102,completion,,,0.51,,,,,,,,,,,,,,,,,0.49,true,234945.20000000298,234944.337,231928.103,231929.09999999404,231944.751,234960.962,,,
fixation,canvas.Screen,0_8_13_0,2022-07-15T14:26:39.295Z,,,,,,2,666.5199999999895,timeout,,,0.515,,,,,,,,,,,,,,,,,0.505,true,235444.70000000298,235444.214,234944.337,234945.29999999702,234960.962,235627.482,,,
stimulus,canvas.Screen,0_8_13_1,2022-07-15T14:26:39.877Z,,,,,,2,396.2180000029912,response,,0.505,0.515,,,https://raw.githubusercontent.com/carero2/loss-perception/main/png/0.505blue1yellowb%3D1w%3D100v%3D11.png,https://raw.githubusercontent.com/carero2/loss-perception/main/png/0.515blue1yellowb%3D1w%3D100v%3D11.png,,,,,,,,,true,f,keypress(f),0.515,0.505,true,236026,236023.70000000298,235444.214,235635.79999999702,235627.482,236060.774,,,
choice,canvas.Screen,0_8_13_2,2022-07-15T14:26:40.895Z,,,,0.505,,2,999.8669999999984,timeout,,,0.515,,0.515,,,1,3,,,,,,,,,,,0.505,true,237044.59999999404,237044.027,236044.268,236044.59999999404,236060.774,237060.641,103,,
ITI,canvas.Screen,0_8_13_3,2022-07-15T14:26:41.395Z,,,2548,,,2,499.8280000000086,timeout,,,0.515,,,,,,,,,,,,,,,,,0.505,true,237544.5,237543.935,237044.027,237044.70000000298,237060.641,237560.469,,,
trial,flow.Sequence,0_8_13,2022-07-15T14:26:41.396Z,,,,,,2,2582.972999999998,completion,,,0.515,,,,,,,,,,,,,,,,,0.505,true,237544.79999999702,237543.935,234944.337,234945.20000000298,234960.962,237560.469,,,
fixation,canvas.Screen,0_8_14_0,2022-07-15T14:26:41.895Z,,,,,,2,683.3640000000014,timeout,,,0.505,,,,,,,,,,,,,,,,,0.495,true,238044.39999999106,238043.869,237543.935,237545,237560.469,238243.833,,,
stimulus,canvas.Screen,0_8_14_1,2022-07-15T14:26:42.705Z,,,,,,2,609.7669999940263,response,,0.495,0.505,,,https://raw.githubusercontent.com/carero2/loss-perception/main/png/0.495blue1yellowb%3D1w%3D100v%3D25.png,https://raw.githubusercontent.com/carero2/loss-perception/main/png/0.505blue1yellowb%3D1w%3D100v%3D25.png,,,,,,,,,true,j,keypress(j),0.505,0.495,true,238854.20000000298,238853.59999999404,238043.869,238252.09999999404,238243.833,238876.94,,,
choice,canvas.Screen,0_8_14_2,2022-07-15T14:26:43.711Z,,,,0.505,,2,999.8610000000044,timeout,,,0.505,,0.495,,,1,4,,,,,,,,,,,0.495,true,239860.79999999702,239860.221,238860.572,238869.5,238876.94,239876.801,104,,
ITI,canvas.Screen,0_8_14_3,2022-07-15T14:26:44.211Z,,,2178,,,2,500.0119999999879,timeout,,,0.505,,,,,,,,,,,,,,,,,0.495,true,240360.70000000298,240360.161,239860.221,239860.89999999106,239876.801,240376.813,,,
trial,flow.Sequence,0_8_14,2022-07-15T14:26:44.212Z,,,,,,2,2799.691999999981,completion,,,0.505,,,,,,,,,,,,,,,,,0.495,true,240361.09999999404,240360.161,237543.935,237545,237560.469,240376.813,,,
fixation,canvas.Screen,0_8_15_0,2022-07-15T14:26:44.711Z,,,,,,6,916.448000000004,timeout,,,0.545,,,,,,,,,,,,,,,,,0.515,true,240860.59999999404,240860.063,240360.161,240361.20000000298,240376.813,241293.261,,,
stimulus,canvas.Screen,0_8_15_1,2022-07-15T14:26:45.410Z,,,,,,6,265.43900000298163,response,,0.515,0.545,,,https://raw.githubusercontent.com/carero2/loss-perception/main/png/0.515blue1yellowb%3D1w%3D100v%3D84.png,https://raw.githubusercontent.com/carero2/loss-perception/main/png/0.545blue1yellowb%3D1w%3D100v%3D84.png,,,,,,,,,true,f,keypress(f),0.545,0.515,true,241559.39999999106,241558.70000000298,240860.063,241301.70000000298,241293.261,241576.523,,,
choice,canvas.Screen,0_8_15_2,2022-07-15T14:26:46.412Z,,,,0.515,,6,999.8660000000091,timeout,,,0.545,,0.545,,,3,7,,,,,,,,,,,0.515,true,242560.79999999702,242559.804,241560.084,241573.29999999702,241576.523,242576.389,107,,
ITI,canvas.Screen,0_8_15_3,2022-07-15T14:26:46.911Z,,,2159,,,6,499.8880000000063,timeout,,,0.545,,,,,,,,,,,,,,,,,0.515,true,243060.29999999702,243059.719,242559.804,242561.09999999404,242576.389,243076.277,,,
trial,flow.Sequence,0_8_15,2022-07-15T14:26:46.911Z,,,,,,6,2682.9060000000172,completion,,,0.545,,,,,,,,,,,,,,,,,0.515,true,243060.5,243059.719,240360.161,240361.20000000298,240376.813,243076.277,,,
fixation,canvas.Screen,0_8_16_0,2022-07-15T14:26:47.411Z,,,,,,4,699.9340000000084,timeout,,,0.53,,,,,,,,,,,,,,,,,0.51,true,243560.20000000298,243559.62,243059.719,243060.59999999404,243076.277,243776.211,,,
stimulus,canvas.Screen,0_8_16_1,2022-07-15T14:26:47.750Z,,,,,,4,122.28899999998976,response,,0.51,0.53,,,https://raw.githubusercontent.com/carero2/loss-perception/main/png/0.51blue1yellowb%3D1w%3D100v%3D51.png,https://raw.githubusercontent.com/carero2/loss-perception/main/png/0.53blue1yellowb%3D1w%3D100v%3D51.png,,,,,,,,,true,f,keypress(f),0.53,0.51,true,243899.09999999404,243898.5,243559.62,243785.70000000298,243776.211,243926.192,,,
choice,canvas.Screen,0_8_16_2,2022-07-15T14:26:48.761Z,,,,0.51,,4,999.8830000000016,timeout,,,0.53,,0.53,,,2,9,,,,,,,,,,,0.51,true,244910,244909.41,243909.602,243913.79999999702,243926.192,244926.075,109,,
ITI,canvas.Screen,0_8_16_3,2022-07-15T14:26:49.261Z,,,2456,,,4,499.87099999998463,timeout,,,0.53,,,,,,,,,,,,,,,,,0.51,true,245409.89999999106,245409.346,244909.41,244910.20000000298,244926.075,245425.946,,,
trial,flow.Sequence,0_8_16,2022-07-15T14:26:49.261Z,,,,,,4,2333.0689999999886,completion,,,0.53,,,,,,,,,,,,,,,,,0.51,true,245410.29999999702,245409.346,243059.719,243060.59999999404,243076.277,245425.946,,,
fixation,canvas.Screen,0_8_17_0,2022-07-15T14:26:49.761Z,,,,,,2,666.5990000000165,timeout,,,0.495,,,,,,,,,,,,,,,,,0.485,false,245909.79999999702,245909.25,245409.346,245410.5,245425.946,246092.545,,,
stimulus,canvas.Screen,0_8_17_1,2022-07-15T14:26:51.803Z,,,,,,2,1857.3549999910465,response,,0.495,0.495,,,https://raw.githubusercontent.com/carero2/loss-perception/main/png/0.495blue1yellowb%3D1w%3D100v%3D39.png,https://raw.githubusercontent.com/carero2/loss-perception/main/png/0.485blue1yellowb%3D1w%3D100v%3D39.png,,,,,,,,,true,j,keypress(j),0.485,0.485,false,247952.29999999702,247949.89999999106,245909.25,246100.20000000298,246092.545,247975.496,,,
choice,canvas.Screen,0_8_17_2,2022-07-15T14:26:52.810Z,,,,0.485,,2,999.8739999999816,timeout,,,0.495,,0.495,,,-3,6,,,,,,,,,,,0.485,false,248959.29999999702,248958.755,247959.41,247967,247975.496,248975.37,106,,
ITI,canvas.Screen,0_8_17_3,2022-07-15T14:26:53.310Z,,,2341,,,2,499.8770000000077,timeout,,,0.495,,,,,,,,,,,,,,,,,0.485,false,249459,249458.568,248958.755,248959.39999999106,248975.37,249475.247,,,
trial,flow.Sequence,0_8_17,2022-07-15T14:26:53.310Z,,,,,,2,4032.622000000003,completion,,,0.495,,,,,,,,,,,,,,,,,0.485,false,249459.29999999702,249458.568,245409.346,245410.39999999106,245425.946,249475.247,,,
fixation,canvas.Screen,0_8_18_0,2022-07-15T14:26:53.810Z,,,,,,4,683.2550000000047,timeout,,,0.49,,,,,,,,,,,,,,,,,0.47,false,249959.09999999404,249958.546,249458.568,249459.39999999106,249475.247,250158.502,,,
stimulus,canvas.Screen,0_8_18_1,2022-07-15T14:26:54.331Z,,,,,,4,320.9979999999923,response,,0.49,0.49,,,https://raw.githubusercontent.com/carero2/loss-perception/main/png/0.49blue1yellowb%3D1w%3D100v%3D98.png,https://raw.githubusercontent.com/carero2/loss-perception/main/png/0.47blue1yellowb%3D1w%3D100v%3D98.png,,,,,,,,,true,f,keypress(f),0.47,0.47,false,250480.39999999106,250479.5,249958.546,250165.70000000298,250158.502,250508.386,,,
choice,canvas.Screen,0_8_18_2,2022-07-15T14:26:55.343Z,,,,0.49,,4,999.8980000000156,timeout,,,0.49,,0.47,,,-2,4,,,,,,,,,,,0.47,false,251492.09999999404,251491.602,250491.915,250495,250508.386,251508.284,104,,
ITI,canvas.Screen,0_8_18_3,2022-07-15T14:26:55.843Z,,,2984,,,4,499.92699999999604,timeout,,,0.49,,,,,,,,,,,,,,,,,0.47,false,251992.20000000298,251991.61,251491.602,251492.29999999702,251508.284,252008.211,,,
trial,flow.Sequence,0_8_18,2022-07-15T14:26:55.843Z,,,,,,4,2516.362999999983,completion,,,0.49,,,,,,,,,,,,,,,,,0.47,false,251992.5,251991.61,249458.568,249459.39999999106,249475.247,252008.211,,,
fixation,canvas.Screen,0_8_19_0,2022-07-15T14:26:56.343Z,,,,,,2,849.9069999999774,timeout,,,0.505,,,,,,,,,,,,,,,,,0.495,false,252492,252491.528,251991.61,251992.70000000298,252008.211,252858.118,,,
stimulus,canvas.Screen,0_8_19_1,2022-07-15T14:26:57.741Z,,,,,,2,1031.5820000029926,response,,0.505,0.505,,,https://raw.githubusercontent.com/carero2/loss-perception/main/png/0.505blue1yellowb%3D1w%3D100v%3D80.png,https://raw.githubusercontent.com/carero2/loss-perception/main/png/0.495blue1yellowb%3D1w%3D100v%3D80.png,,,,,,,,,true,f,keypress(f),0.495,0.495,false,253890.39999999106,253889.70000000298,252491.528,252866.20000000298,252858.118,253907.839,,,
choice,canvas.Screen,0_8_19_2,2022-07-15T14:26:58.743Z,,,,0.505,,2,999.9649999999965,timeout,,,0.505,,0.495,,,1,5,,,,,,,,,,,0.495,false,254891.70000000298,254891.147,253891.659,253904.5,253907.839,254907.804,105,,
ITI,canvas.Screen,0_8_19_3,2022-07-15T14:26:59.242Z,,,2179,,,2,499.90299999999115,timeout,,,0.505,,,,,,,,,,,,,,,,,0.495,false,255391.5,255391.055,254891.147,254891.89999999106,254907.804,255407.707,,,
trial,flow.Sequence,0_8_19,2022-07-15T14:26:59.243Z,,,,,,2,3382.8439999999828,completion,,,0.505,,,,,,,,,,,,,,,,,0.495,false,255391.79999999702,255391.055,251991.61,251992.70000000298,252008.211,255407.707,,,
fixation,canvas.Screen,0_8_20_0,2022-07-15T14:26:59.742Z,,,,,,4,716.56700000001,timeout,,,0.51,,,,,,,,,,,,,,,,,0.49,true,255891.5,255890.966,255391.055,255391.89999999106,255407.707,256124.274,,,
stimulus,canvas.Screen,0_8_20_1,2022-07-15T14:27:00.606Z,,,,,,4,630.6259999910544,response,,0.49,0.51,,,https://raw.githubusercontent.com/carero2/loss-perception/main/png/0.49blue1yellowb%3D1w%3D100v%3D66.png,https://raw.githubusercontent.com/carero2/loss-perception/main/png/0.51blue1yellowb%3D1w%3D100v%3D66.png,,,,,,,,,true,j,keypress(j),0.51,0.49,true,256755.5,256754.89999999106,255890.966,256132.09999999404,256124.274,256774.037,,,
choice,canvas.Screen,0_8_20_2,2022-07-15T14:27:01.609Z,,,,0.51,,4,999.914999999979,timeout,,,0.51,,0.49,,,2,7,,,,,,,,,,,0.49,true,257757.89999999106,257757.261,256757.795,256770,256774.037,257773.952,107,,
ITI,canvas.Screen,0_8_20_3,2022-07-15T14:27:02.109Z,,,2149,,,4,499.9120000000112,timeout,,,0.51,,,,,,,,,,,,,,,,,0.49,true,258258.29999999702,258257.271,257757.261,257758,257773.952,258273.864,,,
trial,flow.Sequence,0_8_20,2022-07-15T14:27:02.110Z,,,,,,4,2849.564000000013,completion,,,0.51,,,,,,,,,,,,,,,,,0.49,true,258258.70000000298,258257.271,255391.055,255391.89999999106,255407.707,258273.864,,,
fixation,canvas.Screen,0_8_21_0,2022-07-15T14:27:02.608Z,,,,,,2,683.1879999999946,timeout,,,0.495,,,,,,,,,,,,,,,,,0.485,false,258757.59999999404,258757.087,258257.271,258258.89999999106,258273.864,258957.052,,,
stimulus,canvas.Screen,0_8_21_1,2022-07-15T14:27:03.356Z,,,,,,2,547.6480000029842,response,,0.495,0.495,,,https://raw.githubusercontent.com/carero2/loss-perception/main/png/0.495blue1yellowb%3D1w%3D100v%3D37.png,https://raw.githubusercontent.com/carero2/loss-perception/main/png/0.485blue1yellowb%3D1w%3D100v%3D37.png,,,,,,,,,true,j,keypress(j),0.485,0.485,false,259505.29999999702,259504.70000000298,258757.087,258967,258957.052,259523.605,,,
choice,canvas.Screen,0_8_21_2,2022-07-15T14:27:04.358Z,,,,0.485,,2,999.9489999999932,timeout,,,0.495,,0.495,,,-3,4,,,,,,,,,,,0.485,false,260507.5,260506.883,259507.255,259521.89999999106,259523.605,260523.554,104,,
ITI,canvas.Screen,0_8_21_3,2022-07-15T14:27:04.858Z,,,2630,,,2,499.8880000000063,timeout,,,0.495,,,,,,,,,,,,,,,,,0.485,false,261007.29999999702,261006.8,260506.883,260507.70000000298,260523.554,261023.442,,,
trial,flow.Sequence,0_8_21,2022-07-15T14:27:04.859Z,,,,,,2,2732.935999999987,completion,,,0.495,,,,,,,,,,,,,,,,,0.485,false,261008,261006.8,258257.271,258258.79999999702,258273.864,261023.442,,,
fixation,canvas.Screen,0_8_22_0,2022-07-15T14:27:05.358Z,,,,,,2,666.4919999999984,timeout,,,0.515,,,,,,,,,,,,,,,,,0.505,true,261507.29999999702,261506.732,261006.8,261008.39999999106,261023.442,261689.934,,,
stimulus,canvas.Screen,0_8_22_1,2022-07-15T14:27:07.077Z,,,,,,2,1535.1659999940312,response,,0.505,0.515,,,https://raw.githubusercontent.com/carero2/loss-perception/main/png/0.505blue1yellowb%3D1w%3D100v%3D43.png,https://raw.githubusercontent.com/carero2/loss-perception/main/png/0.515blue1yellowb%3D1w%3D100v%3D43.png,,,,,,,,,true,f,keypress(f),0.515,0.505,true,263225.89999999106,263225.09999999404,261506.732,261697.29999999702,261689.934,263256.312,,,
choice,canvas.Screen,0_8_22_2,2022-07-15T14:27:08.091Z,,,,0.505,,2,999.8540000000503,timeout,,,0.515,,0.515,,,1,5,,,,,,,,,,,0.505,true,264240.09999999404,264239.503,263240.334,263240.799999997,263256.312,264256.166,105,,
ITI,canvas.Screen,0_8_22_3,2022-07-15T14:27:08.591Z,,,2923,,,2,499.9659999999567,timeout,,,0.515,,,,,,,,,,,,,,,,,0.505,true,264740.09999999404,264739.524,264239.503,264240.299999997,264256.166,264756.132,,,
trial,flow.Sequence,0_8_22,2022-07-15T14:27:08.591Z,,,,,,2,3716.081999999966,completion,,,0.515,,,,,,,,,,,,,,,,,0.505,true,264740.299999997,264739.524,261006.8,261008.39999999106,261023.442,264756.132,,,
fixation,canvas.Screen,0_8_23_0,2022-07-15T14:27:09.091Z,,,,,,6,683.304999999993,timeout,,,0.515,,,,,,,,,,,,,,,,,0.485,false,265240,265239.492,264739.524,264740.39999999106,264756.132,265439.437,,,
stimulus,canvas.Screen,0_8_23_1,2022-07-15T14:27:09.846Z,,,,,,6,555.1629999940633,response,,0.515,0.515,,,https://raw.githubusercontent.com/carero2/loss-perception/main/png/0.515blue1yellowb%3D1w%3D100v%3D70.png,https://raw.githubusercontent.com/carero2/loss-perception/main/png/0.485blue1yellowb%3D1w%3D100v%3D70.png,,,,,,,,,true,f,keypress(f),0.485,0.485,false,265995.299999997,265994.59999999404,265239.492,265447.299999997,265439.437,266022.604,,,
choice,canvas.Screen,0_8_23_2,2022-07-15T14:27:10.857Z,,,,0.515,,6,999.814000000013,timeout,,,0.515,,0.485,,,3,8,,,,,,,,,,,0.485,false,267006.39999999106,267005.86,266006.17,266009.09999999404,266022.604,267022.418,108,,
ITI,canvas.Screen,0_8_23_3,2022-07-15T14:27:11.357Z,,,2617,,,6,499.9550000000163,timeout,,,0.515,,,,,,,,,,,,,,,,,0.485,false,267506.39999999106,267505.802,267005.86,267006.59999999404,267022.418,267522.373,,,
trial,flow.Sequence,0_8_23,2022-07-15T14:27:11.358Z,,,,,,6,2749.670000000042,completion,,,0.515,,,,,,,,,,,,,,,,,0.485,false,267506.59999999404,267505.802,264739.524,264740.39999999106,264756.132,267522.373,,,
fixation,canvas.Screen,0_8_24_0,2022-07-15T14:27:11.857Z,,,,,,4,666.539999999979,timeout,,,0.53,,,,,,,,,,,,,,,,,0.51,true,268006.200000003,268005.601,267505.802,267506.89999999106,267522.373,268188.913,,,
stimulus,canvas.Screen,0_8_24_1,2022-07-15T14:27:12.797Z,,,,,,4,756.6869999940391,response,,0.51,0.53,,,https://raw.githubusercontent.com/carero2/loss-perception/main/png/0.51blue1yellowb%3D1w%3D100v%3D25.png,https://raw.githubusercontent.com/carero2/loss-perception/main/png/0.53blue1yellowb%3D1w%3D100v%3D25.png,,,,,,,,,true,f,keypress(f),0.53,0.51,true,268946.39999999106,268945.59999999404,268005.601,268197.799999997,268188.913,268972.156,,,
choice,canvas.Screen,0_8_24_2,2022-07-15T14:27:13.807Z,,,,0.51,,4,999.820000000007,timeout,,,0.53,,0.53,,,2,10,,,,,,,,,,,0.51,true,269956,269955.399,268955.883,268960.799999997,268972.156,269971.976,110,,
ITI,canvas.Screen,0_8_24_3,2022-07-15T14:27:14.307Z,,,2058,,,4,499.9859999999753,timeout,,,0.53,,,,,,,,,,,,,,,,,0.51,true,270455.799999997,270455.302,269955.399,269956.200000003,269971.976,270471.962,,,
trial,flow.Sequence,0_8_24,2022-07-15T14:27:14.307Z,,,,,,4,2932.9290000000037,completion,,,0.53,,,,,,,,,,,,,,,,,0.51,true,270456.200000003,270455.302,267505.802,267506.799999997,267522.373,270471.962,,,
fixation,canvas.Screen,0_8_25_0,2022-07-15T14:27:14.807Z,,,,,,6,683.2150000000256,timeout,,,0.485,,,,,,,,,,,,,,,,,0.455,false,270955.700000003,270955.218,270455.302,270456.299999997,270471.962,271155.177,,,
stimulus,canvas.Screen,0_8_25_1,2022-07-15T14:27:15.648Z,,,,,,6,640.8229999999749,response,,0.485,0.485,,,https://raw.githubusercontent.com/carero2/loss-perception/main/png/0.485blue1yellowb%3D1w%3D100v%3D17.png,https://raw.githubusercontent.com/carero2/loss-perception/main/png/0.455blue1yellowb%3D1w%3D100v%3D17.png,,,,,,,,,true,j,keypress(j),0.455,0.455,false,271797.200000003,271796,270955.218,271164.09999999404,271155.177,271821.662,,,
choice,canvas.Screen,0_8_25_2,2022-07-15T14:27:16.656Z,,,,0.455,,6,999.8389999999781,timeout,,,0.485,,0.485,,,-9,1,,,,,,,,,,,0.455,false,272805.299999997,272804.8,271805.243,271813.89999999106,271821.662,272821.501,101,,
ITI,canvas.Screen,0_8_25_3,2022-07-15T14:27:17.156Z,,,2716,,,6,499.8740000000107,timeout,,,0.485,,,,,,,,,,,,,,,,,0.455,false,273305.299999997,273304.75,272804.8,272805.5,272821.501,273321.375,,,
trial,flow.Sequence,0_8_25,2022-07-15T14:27:17.157Z,,,,,,6,2832.7880000000005,completion,,,0.485,,,,,,,,,,,,,,,,,0.455,false,273305.799999997,273304.75,270455.302,270456.299999997,270471.962,273321.375,,,
fixation,canvas.Screen,0_8_26_0,2022-07-15T14:27:17.656Z,,,,,,6,683.3250000000116,timeout,,,0.545,,,,,,,,,,,,,,,,,0.515,false,273805.09999999404,273804.671,273304.75,273306,273321.375,274004.7,,,
stimulus,canvas.Screen,0_8_26_1,2022-07-15T14:27:18.682Z,,,,,,6,825.7999999999884,response,,0.545,0.545,,,https://raw.githubusercontent.com/carero2/loss-perception/main/png/0.545blue1yellowb%3D1w%3D100v%3D65.png,https://raw.githubusercontent.com/carero2/loss-perception/main/png/0.515blue1yellowb%3D1w%3D100v%3D65.png,,,,,,,,,true,j,keypress(j),0.515,0.515,false,274831.09999999404,274830.5,273804.671,274012.299999997,274004.7,274854.526,,,
choice,canvas.Screen,0_8_26_2,2022-07-15T14:27:19.689Z,,,,0.515,,6,999.8949999999604,timeout,,,0.545,,0.545,,,3,4,,,,,,,,,,,0.515,false,275838.200000003,275837.771,274838.125,274845.89999999106,274854.526,275854.421,104,,
ITI,canvas.Screen,0_8_26_3,2022-07-15T14:27:20.189Z,,,2972,,,6,499.9100000000326,timeout,,,0.545,,,,,,,,,,,,,,,,,0.515,false,276338.09999999404,276337.563,275837.771,275838.39999999106,275854.421,276354.331,,,
trial,flow.Sequence,0_8_26,2022-07-15T14:27:20.189Z,,,,,,6,3016.1880000000237,completion,,,0.545,,,,,,,,,,,,,,,,,0.515,false,276338.39999999106,276337.563,273304.75,273305.89999999106,273321.375,276354.331,,,
fixation,canvas.Screen,0_8_27_0,2022-07-15T14:27:20.689Z,,,,,,6,699.8699999999953,timeout,,,0.485,,,,,,,,,,,,,,,,,0.455,true,276838.09999999404,276837.591,276337.563,276338.59999999404,276354.331,277054.201,,,
stimulus,canvas.Screen,0_8_27_1,2022-07-15T14:27:21.658Z,,,,,,6,751.7989999999991,response,,0.455,0.485,,,https://raw.githubusercontent.com/carero2/loss-perception/main/png/0.455blue1yellowb%3D1w%3D100v%3D75.png,https://raw.githubusercontent.com/carero2/loss-perception/main/png/0.485blue1yellowb%3D1w%3D100v%3D75.png,,,,,,,,,true,j,keypress(j),0.485,0.455,true,277806.89999999106,277806,276837.591,277061.700000003,277054.201,277837.433,,,
choice,canvas.Screen,0_8_27_2,2022-07-15T14:27:22.672Z,,,,0.485,,6,999.7980000000098,timeout,,,0.485,,0.455,,,-3,1,,,,,,,,,,,0.455,true,278821.5,278820.482,277821.028,277822.59999999404,277837.433,278837.231,101,,
ITI,canvas.Screen,0_8_27_3,2022-07-15T14:27:23.172Z,,,2149,,,6,499.86999999999534,timeout,,,0.485,,,,,,,,,,,,,,,,,0.455,true,279320.89999999106,279320.424,278820.482,278821.799999997,278837.231,279337.101,,,
trial,flow.Sequence,0_8_27,2022-07-15T14:27:23.172Z,,,,,,6,2966.0929999999935,completion,,,0.485,,,,,,,,,,,,,,,,,0.455,true,279321.200000003,279320.424,276337.563,276338.5,276354.331,279337.101,,,
fixation,canvas.Screen,0_8_28_0,2022-07-15T14:27:23.672Z,,,,,,4,683.3179999999702,timeout,,,0.53,,,,,,,,,,,,,,,,,0.51,true,279821.09999999404,279820.351,279320.424,279321.299999997,279337.101,280020.419,,,
stimulus,canvas.Screen,0_8_28_1,2022-07-15T14:27:24.919Z,,,,,,4,1046.480999991065,response,,0.51,0.53,,,https://raw.githubusercontent.com/carero2/loss-perception/main/png/0.51blue1yellowb%3D1w%3D100v%3D64.png,https://raw.githubusercontent.com/carero2/loss-perception/main/png/0.53blue1yellowb%3D1w%3D100v%3D64.png,,,,,,,,,true,f,keypress(f),0.53,0.51,true,281067.799999997,281066.89999999106,279820.351,280029.09999999404,280020.419,281086.81,,,
choice,canvas.Screen,0_8_28_2,2022-07-15T14:27:25.922Z,,,,0.51,,4,999.8030000000144,timeout,,,0.53,,0.53,,,2,3,,,,,,,,,,,0.51,true,282070.59999999404,282070.121,281070.79,281085,281086.81,282086.613,103,,
ITI,canvas.Screen,0_8_28_3,2022-07-15T14:27:26.421Z,,,2142,,,4,499.9739999999874,timeout,,,0.53,,,,,,,,,,,,,,,,,0.51,true,282570.5,282570.003,282070.121,282070.89999999106,282086.613,282586.587,,,
trial,flow.Sequence,0_8_28,2022-07-15T14:27:26.422Z,,,,,,4,3232.902000000002,completion,,,0.53,,,,,,,,,,,,,,,,,0.51,true,282570.700000003,282570.003,279320.424,279321.299999997,279337.101,282586.587,,,
fixation,canvas.Screen,0_8_29_0,2022-07-15T14:27:26.921Z,,,,,,2,516.61599999998,timeout,,,0.495,,,,,,,,,,,,,,,,,0.485,false,283070.5,283069.929,282570.003,282570.89999999106,282586.587,283103.203,,,
stimulus,canvas.Screen,0_8_29_1,2022-07-15T14:27:27.333Z,,,,,,2,377.89699999406,response,,0.495,0.495,,,https://raw.githubusercontent.com/carero2/loss-perception/main/png/0.495blue1yellowb%3D1w%3D100v%3D48.png,https://raw.githubusercontent.com/carero2/loss-perception/main/png/0.485blue1yellowb%3D1w%3D100v%3D48.png,,,,,,,,,true,j,keypress(j),0.485,0.485,false,283482.09999999404,283481.09999999404,283069.929,283111.59999999404,283103.203,283503.092,,,
choice,canvas.Screen,0_8_29_2,2022-07-15T14:27:28.338Z,,,,0.485,,2,999.8989999999758,timeout,,,0.495,,0.495,,,-3,0,,,,,,,,,,,0.485,false,284486.89999999106,284486.345,283486.68,283497.200000003,283503.092,284502.991,100,,
ITI,canvas.Screen,0_8_29_3,2022-07-15T14:27:28.838Z,,,2831,,,2,499.8980000000447,timeout,,,0.495,,,,,,,,,,,,,,,,,0.485,false,284986.700000003,284986.191,284486.345,284487.39999999106,284502.991,285002.889,,,
trial,flow.Sequence,0_8_29,2022-07-15T14:27:28.838Z,,,,,,2,2399.603999999992,completion,,,0.495,,,,,,,,,,,,,,,,,0.485,false,284987,284986.191,282570.003,282570.799999997,282586.587,285002.889,,,
fixation,canvas.Screen,0_8_30_0,2022-07-15T14:27:29.338Z,,,,,,4,683.2839999999851,timeout,,,0.51,,,,,,,,,,,,,,,,,0.49,true,285486.700000003,285486.197,284986.191,284987,285002.889,285686.173,,,
stimulus,canvas.Screen,0_8_30_1,2022-07-15T14:27:30.047Z,,,,,,4,509.42699999402976,response,,0.49,0.51,,,https://raw.githubusercontent.com/carero2/loss-perception/main/png/0.49blue1yellowb%3D1w%3D100v%3D16.png,https://raw.githubusercontent.com/carero2/loss-perception/main/png/0.51blue1yellowb%3D1w%3D100v%3D16.png,,,,,,,,,true,j,keypress(j),0.51,0.49,true,286196.39999999106,286195.59999999404,285486.197,285694.59999999404,285686.173,286219.358,,,
choice,canvas.Screen,0_8_30_2,2022-07-15T14:27:31.054Z,,,,0.51,,4,999.7920000000158,timeout,,,0.51,,0.49,,,2,2,,,,,,,,,,,0.49,true,287203.200000003,287202.592,286202.808,286211.09999999404,286219.358,287219.15,102,,
ITI,canvas.Screen,0_8_30_3,2022-07-15T14:27:31.554Z,,,2546,,,4,499.9629999999888,timeout,,,0.51,,,,,,,,,,,,,,,,,0.49,true,287703.09999999404,287702.52,287202.592,287203.39999999106,287219.15,287719.113,,,
trial,flow.Sequence,0_8_30,2022-07-15T14:27:31.554Z,,,,,,4,2699.630999999994,completion,,,0.51,,,,,,,,,,,,,,,,,0.49,true,287703.39999999106,287702.52,284986.191,284987,285002.889,287719.113,,,
fixation,canvas.Screen,0_8_31_0,2022-07-15T14:27:32.054Z,,,,,,4,499.8869999999879,timeout,,,0.49,,,,,,,,,,,,,,,,,0.47,false,288202.89999999106,288202.443,287702.52,287703.59999999404,287719.113,288219,,,
stimulus,canvas.Screen,0_8_31_1,2022-07-15T14:27:32.402Z,,,,,,4,331.8999999910593,response,,0.49,0.49,,,https://raw.githubusercontent.com/carero2/loss-perception/main/png/0.49blue1yellowb%3D1w%3D100v%3D61.png,https://raw.githubusercontent.com/carero2/loss-perception/main/png/0.47blue1yellowb%3D1w%3D100v%3D61.png,,,,,,,,,true,f,keypress(f),0.47,0.47,false,288551.5,288550.89999999106,288202.443,288216.5,288219,288568.917,,,
choice,canvas.Screen,0_8_31_2,2022-07-15T14:27:33.404Z,,,,0.49,,4,999.8899999999558,timeout,,,0.49,,0.47,,,-2,0,,,,,,,,,,,0.47,false,289552.799999997,289552.204,288552.46,288566.799999997,288568.917,289568.807,100,,
ITI,canvas.Screen,0_8_31_3,2022-07-15T14:27:33.904Z,,,2550,,,4,499.8880000000354,timeout,,,0.49,,,,,,,,,,,,,,,,,0.47,false,290052.799999997,290052.044,289552.204,289553.09999999404,289568.807,290068.695,,,
trial,flow.Sequence,0_8_31,2022-07-15T14:27:33.904Z,,,,,,4,2332.9309999999823,completion,,,0.49,,,,,,,,,,,,,,,,,0.47,false,290053,290052.044,287702.52,287703.5,287719.113,290068.695,,,
fixation,canvas.Screen,0_8_32_0,2022-07-15T14:27:34.403Z,,,,,,2,683.2399999999907,timeout,,,0.505,,,,,,,,,,,,,,,,,0.495,true,290552.5,290552.034,290052.044,290053.200000003,290068.695,290751.935,,,
stimulus,canvas.Screen,0_8_32_1,2022-07-15T14:27:35.823Z,,,,,,2,1219.5650000000023,response,,0.495,0.505,,,https://raw.githubusercontent.com/carero2/loss-perception/main/png/0.495blue1yellowb%3D1w%3D100v%3D59.png,https://raw.githubusercontent.com/carero2/loss-perception/main/png/0.505blue1yellowb%3D1w%3D100v%3D59.png,,,,,,,,,true,j,keypress(j),0.505,0.495,true,291972.299999997,291971.5,290552.034,290759.39999999106,290751.935,292001.833,,,
choice,canvas.Screen,0_8_32_2,2022-07-15T14:27:36.836Z,,,,0.505,,2,999.8010000000359,timeout,,,0.505,,0.495,,,1,1,,,,,,,,,,,0.495,true,292985.59999999404,292985.005,291969.083,291985,292001.833,293001.634,101,,
ITI,canvas.Screen,0_8_32_3,2022-07-15T14:27:37.337Z,,,2000,,,2,499.945000000007,timeout,,,0.505,,,,,,,,,,,,,,,,,0.495,true,293485.89999999106,293484.914,292985.005,292985.700000003,293001.634,293501.579,,,
trial,flow.Sequence,0_8_32,2022-07-15T14:27:37.337Z,,,,,,2,3416.2189999999828,completion,,,0.505,,,,,,,,,,,,,,,,,0.495,true,293486.299999997,293484.914,290052.044,290053.09999999404,290068.695,293501.579,,,
fixation,canvas.Screen,0_8_33_0,2022-07-15T14:27:37.836Z,,,,,,6,666.5,timeout,,,0.545,,,,,,,,,,,,,,,,,0.515,false,293985.299999997,293984.829,293484.914,293486.299999997,293501.579,294168.079,,,
stimulus,canvas.Screen,0_8_33_1,2022-07-15T14:27:39.038Z,,,,,,6,1018.8209999910323,response,,0.545,0.545,,,https://raw.githubusercontent.com/carero2/loss-perception/main/png/0.545blue1yellowb%3D1w%3D100v%3D29.png,https://raw.githubusercontent.com/carero2/loss-perception/main/png/0.515blue1yellowb%3D1w%3D100v%3D29.png,,,,,,,,,true,j,keypress(j),0.515,0.515,false,295187.59999999404,295186.89999999106,293984.829,294175.59999999404,294168.079,295217.982,,,
choice,canvas.Screen,0_8_33_2,2022-07-15T14:27:40.053Z,,,,0.515,,6,999.8059999999823,timeout,,,0.545,,0.545,,,3,4,,,,,,,,,,,0.515,false,296201.89999999106,296201.161,295184.954,295201.09999999404,295217.982,296217.788,104,,
ITI,canvas.Screen,0_8_33_3,2022-07-15T14:27:40.553Z,,,2602,,,6,499.8670000000275,timeout,,,0.545,,,,,,,,,,,,,,,,,0.515,false,296701.700000003,296701.014,296201.161,296202.200000003,296217.788,296717.655,,,
trial,flow.Sequence,0_8_33,2022-07-15T14:27:40.553Z,,,,,,6,3199.4349999999977,completion,,,0.545,,,,,,,,,,,,,,,,,0.515,false,296702.09999999404,296701.014,293484.914,293486.299999997,293501.579,296717.655,,,
fixation,canvas.Screen,0_8_34_0,2022-07-15T14:27:41.052Z,,,,,,2,699.8669999999693,timeout,,,0.515,,,,,,,,,,,,,,,,,0.505,true,297201.299999997,297200.857,296701.014,296702.299999997,296717.655,297417.522,,,
stimulus,canvas.Screen,0_8_34_1,2022-07-15T14:27:42.823Z,,,,,,2,1554.0779999940423,response,,0.505,0.515,,,https://raw.githubusercontent.com/carero2/loss-perception/main/png/0.505blue1yellowb%3D1w%3D100v%3D67.png,https://raw.githubusercontent.com/carero2/loss-perception/main/png/0.515blue1yellowb%3D1w%3D100v%3D67.png,,,,,,,,,true,f,keypress(f),0.515,0.505,true,298972.5,298971.59999999404,297200.857,297425.5,297417.522,299000.592,,,
choice,canvas.Screen,0_8_34_2,2022-07-15T14:27:43.835Z,,,,0.505,,2,999.929999999993,timeout,,,0.515,,0.515,,,1,5,,,,,,,,,,,0.505,true,299984.39999999106,299983.874,298984.53,298986.5,299000.592,300000.522,105,,
ITI,canvas.Screen,0_8_34_3,2022-07-15T14:27:44.335Z,,,2535,,,2,499.9199999999837,timeout,,,0.515,,,,,,,,,,,,,,,,,0.505,true,300484.39999999106,300483.717,299983.874,299984.59999999404,300000.522,300500.442,,,
trial,flow.Sequence,0_8_34,2022-07-15T14:27:44.336Z,,,,,,2,3766.0619999999763,completion,,,0.515,,,,,,,,,,,,,,,,,0.505,true,300485.299999997,300483.717,296701.014,296702.299999997,296717.655,300500.442,,,
fixation,canvas.Screen,0_8_35_0,2022-07-15T14:27:44.835Z,,,,,,6,683.2339999999967,timeout,,,0.515,,,,,,,,,,,,,,,,,0.485,false,300984.200000003,300983.714,300483.717,300485.39999999106,300500.442,301183.676,,,
stimulus,canvas.Screen,0_8_35_1,2022-07-15T14:27:45.799Z,,,,,,6,763.2239999910817,response,,0.515,0.515,,,https://raw.githubusercontent.com/carero2/loss-perception/main/png/0.515blue1yellowb%3D1w%3D100v%3D7.png,https://raw.githubusercontent.com/carero2/loss-perception/main/png/0.485blue1yellowb%3D1w%3D100v%3D7.png,,,,,,,,,true,j,keypress(j),0.485,0.485,false,301947.89999999106,301946.89999999106,300983.714,301192,301183.676,301995.793,,,
choice,canvas.Screen,0_8_35_2,2022-07-15T14:27:46.835Z,,,,0.485,,6,1004.2039999999688,timeout,,,0.515,,0.515,,,-3,2,,,,,,,,,,,0.485,false,302983.89999999106,302983.377,301950.343,301966.200000003,301995.793,302999.997,102,,
ITI,canvas.Screen,0_8_35_3,2022-07-15T14:27:47.335Z,,,2935,,,6,499.875,timeout,,,0.515,,,,,,,,,,,,,,,,,0.485,false,303483.799999997,303483.293,302983.377,302984.09999999404,302999.997,303499.872,,,
trial,flow.Sequence,0_8_35,2022-07-15T14:27:47.335Z,,,,,,6,2982.851000000024,completion,,,0.515,,,,,,,,,,,,,,,,,0.485,false,303484.09999999404,303483.293,300483.717,300485.39999999106,300500.442,303499.872,,,
fixation,canvas.Screen,0_8_36_0,2022-07-15T14:27:47.834Z,,,,,,2,683.335000000021,timeout,,,0.505,,,,,,,,,,,,,,,,,0.495,true,303983.700000003,303983.225,303483.293,303484.200000003,303499.872,304183.207,,,
stimulus,canvas.Screen,0_8_36_1,2022-07-15T14:27:49.925Z,,,,,,2,1888.6929999910644,response,,0.495,0.505,,,https://raw.githubusercontent.com/carero2/loss-perception/main/png/0.495blue1yellowb%3D1w%3D100v%3D66.png,https://raw.githubusercontent.com/carero2/loss-perception/main/png/0.505blue1yellowb%3D1w%3D100v%3D66.png,,,,,,,,,true,j,keypress(j),0.505,0.495,true,306074.39999999106,306071.89999999106,303983.225,304191.299999997,304183.207,306099.543,,,
choice,canvas.Screen,0_8_36_2,2022-07-15T14:27:50.934Z,,,,0.505,,2,999.7529999999679,timeout,,,0.505,,0.495,,,1,3,,,,,,,,,,,0.495,true,307083.700000003,307082.714,306083.917,306090.09999999404,306099.543,307099.296,103,,
ITI,canvas.Screen,0_8_36_3,2022-07-15T14:27:51.434Z,,,2747,,,2,499.9330000000191,timeout,,,0.505,,,,,,,,,,,,,,,,,0.495,true,307583.09999999404,307582.622,307082.714,307083.89999999106,307099.296,307599.229,,,
trial,flow.Sequence,0_8_36,2022-07-15T14:27:51.434Z,,,,,,2,4082.75,completion,,,0.505,,,,,,,,,,,,,,,,,0.495,true,307583.39999999106,307582.622,303483.293,303484.200000003,303499.872,307599.229,,,
fixation,canvas.Screen,0_8_37_0,2022-07-15T14:27:51.933Z,,,,,,2,733.2170000000042,timeout,,,0.515,,,,,,,,,,,,,,,,,0.505,false,308083,308082.555,307582.622,307583.39999999106,307599.229,308332.446,,,
stimulus,canvas.Screen,0_8_37_1,2022-07-15T14:27:53.473Z,,,,,,2,1289.3539999970235,response,,0.515,0.515,,,https://raw.githubusercontent.com/carero2/loss-perception/main/png/0.515blue1yellowb%3D1w%3D100v%3D100.png,https://raw.githubusercontent.com/carero2/loss-perception/main/png/0.505blue1yellowb%3D1w%3D100v%3D100.png,,,,,,,,,true,j,keypress(j),0.505,0.505,false,309622.299999997,309621.799999997,308082.555,308340.299999997,308332.446,309648.848,,,
choice,canvas.Screen,0_8_37_2,2022-07-15T14:27:54.483Z,,,,0.505,,2,999.8530000000028,timeout,,,0.515,,0.515,,,1,4,,,,,,,,,,,0.505,false,310632.799999997,310632.129,309632.801,309637,309648.848,310648.701,104,,
ITI,canvas.Screen,0_8_37_3,2022-07-15T14:27:54.983Z,,,2045,,,2,499.96999999997206,timeout,,,0.515,,,,,,,,,,,,,,,,,0.505,false,311132.59999999404,311132.051,310632.129,310632.89999999106,310648.701,311148.671,,,
trial,flow.Sequence,0_8_37,2022-07-15T14:27:54.983Z,,,,,,2,3532.8219999999856,completion,,,0.515,,,,,,,,,,,,,,,,,0.505,false,311132.89999999106,311132.051,307582.622,307583.39999999106,307599.229,311148.671,,,
fixation,canvas.Screen,0_8_38_0,2022-07-15T14:27:55.483Z,,,,,,4,733.2560000000522,timeout,,,0.53,,,,,,,,,,,,,,,,,0.51,false,311632.5,311631.984,311132.051,311133,311148.671,311881.927,,,
stimulus,canvas.Screen,0_8_38_1,2022-07-15T14:27:56.679Z,,,,,,4,945.2730000029551,response,,0.53,0.53,,,https://raw.githubusercontent.com/carero2/loss-perception/main/png/0.53blue1yellowb%3D1w%3D100v%3D63.png,https://raw.githubusercontent.com/carero2/loss-perception/main/png/0.51blue1yellowb%3D1w%3D100v%3D63.png,,,,,,,,,true,j,keypress(j),0.51,0.51,false,312828.09999999404,312827.200000003,311631.984,311890.09999999404,311881.927,312848.324,,,
choice,canvas.Screen,0_8_38_2,2022-07-15T14:27:57.682Z,,,,0.51,,4,999.8229999999749,timeout,,,0.53,,0.53,,,2,6,,,,,,,,,,,0.51,false,313832,313831.479,312831.916,312844.799999997,312848.324,313848.147,106,,
ITI,canvas.Screen,0_8_38_3,2022-07-15T14:27:58.183Z,,,2665,,,4,500.05200000002515,timeout,,,0.53,,,,,,,,,,,,,,,,,0.51,false,314332.09999999404,314331.481,313831.479,313832.09999999404,313848.147,314348.199,,,
trial,flow.Sequence,0_8_38,2022-07-15T14:27:58.183Z,,,,,,4,3182.810000000056,completion,,,0.53,,,,,,,,,,,,,,,,,0.51,false,314332.59999999404,314331.481,311132.051,311133,311148.671,314348.199,,,
fixation,canvas.Screen,0_8_39_0,2022-07-15T14:27:58.682Z,,,,,,6,699.8849999999511,timeout,,,0.485,,,,,,,,,,,,,,,,,0.455,true,314831.89999999106,314831.444,314331.481,314332.799999997,314348.199,315048.084,,,
stimulus,canvas.Screen,0_8_39_1,2022-07-15T14:28:00.094Z,,,,,,6,1195.015999994066,response,,0.455,0.485,,,https://raw.githubusercontent.com/carero2/loss-perception/main/png/0.455blue1yellowb%3D1w%3D100v%3D22.png,https://raw.githubusercontent.com/carero2/loss-perception/main/png/0.485blue1yellowb%3D1w%3D100v%3D22.png,,,,,,,,,true,f,keypress(f),0.485,0.455,true,316243.89999999106,316243.09999999404,314831.444,315056.39999999106,315048.084,316264.47,,,
choice,canvas.Screen,0_8_39_2,2022-07-15T14:28:01.099Z,,,,0.455,,6,999.89300000004,timeout,,,0.485,,0.485,,,-9,-3,,,,,,,,,,,0.455,true,317248.700000003,317247.689,316247.914,316259.89999999106,316264.47,317264.363,97,,
ITI,canvas.Screen,0_8_39_3,2022-07-15T14:28:01.599Z,,,2968,,,6,499.88199999998324,timeout,,,0.485,,,,,,,,,,,,,,,,,0.455,true,317748,317747.583,317247.689,317249,317264.363,317764.245,,,
trial,flow.Sequence,0_8_39,2022-07-15T14:28:01.599Z,,,,,,6,3399.383999999962,completion,,,0.485,,,,,,,,,,,,,,,,,0.455,true,317748.200000003,317747.583,314331.481,314332.799999997,314348.199,317764.245,,,
fixation,canvas.Screen,0_8_40_0,2022-07-15T14:28:02.099Z,,,,,,6,683.2939999999944,timeout,,,0.515,,,,,,,,,,,,,,,,,0.485,true,318248,318247.575,317747.583,317748.39999999106,317764.245,318447.539,,,
stimulus,canvas.Screen,0_8_40_1,2022-07-15T14:28:02.859Z,,,,,,6,560.5609999940498,response,,0.485,0.515,,,https://raw.githubusercontent.com/carero2/loss-perception/main/png/0.485blue1yellowb%3D1w%3D100v%3D37.png,https://raw.githubusercontent.com/carero2/loss-perception/main/png/0.515blue1yellowb%3D1w%3D100v%3D37.png,,,,,,,,,true,j,keypress(j),0.515,0.485,true,319008.799999997,319008.09999999404,318247.575,318456.59999999404,318447.539,319030.722,,,
choice,canvas.Screen,0_8_40_2,2022-07-15T14:28:03.865Z,,,,0.515,,6,999.8759999999893,timeout,,,0.515,,0.485,,,3,0,,,,,,,,,,,0.485,true,320015,320013.976,319014.473,319025.299999997,319030.722,320030.598,100,,
ITI,canvas.Screen,0_8_40_3,2022-07-15T14:28:04.365Z,,,2236,,,6,499.8620000000228,timeout,,,0.515,,,,,,,,,,,,,,,,,0.485,true,320514.299999997,320513.845,320013.976,320015.299999997,320030.598,320530.46,,,
trial,flow.Sequence,0_8_40,2022-07-15T14:28:04.365Z,,,,,,6,2749.5999999999767,completion,,,0.515,,,,,,,,,,,,,,,,,0.485,true,320514.59999999404,320513.845,317747.583,317748.39999999106,317764.245,320530.46,,,
fixation,canvas.Screen,0_8_41_0,2022-07-15T14:28:04.865Z,,,,,,2,683.1969999999856,timeout,,,0.495,,,,,,,,,,,,,,,,,0.485,false,321014.39999999106,321013.797,320513.845,320514.700000003,320530.46,321213.657,,,
stimulus,canvas.Screen,0_8_41_1,2022-07-15T14:28:05.489Z,,,,,,2,424.14299999701325,response,,0.495,0.495,,,https://raw.githubusercontent.com/carero2/loss-perception/main/png/0.495blue1yellowb%3D1w%3D100v%3D68.png,https://raw.githubusercontent.com/carero2/loss-perception/main/png/0.485blue1yellowb%3D1w%3D100v%3D68.png,,,,,,,,,true,f,keypress(f),0.485,0.485,false,321638.299999997,321637.799999997,321013.797,321221.799999997,321213.657,321663.602,,,
choice,canvas.Screen,0_8_41_2,2022-07-15T14:28:06.498Z,,,,0.495,,2,999.8389999999781,timeout,,,0.495,,0.485,,,-1,-1,,,,,,,,,,,0.485,false,322647.59999999404,322646.875,321647.189,321653.59999999404,321663.602,322663.441,99,,
ITI,canvas.Screen,0_8_41_3,2022-07-15T14:28:06.998Z,,,2002,,,2,499.93700000003446,timeout,,,0.495,,,,,,,,,,,,,,,,,0.485,false,323147.299999997,323146.775,322646.875,322647.89999999106,322663.441,323163.378,,,
trial,flow.Sequence,0_8_41,2022-07-15T14:28:06.998Z,,,,,,2,2616.3150000000023,completion,,,0.495,,,,,,,,,,,,,,,,,0.485,false,323147.59999999404,323146.775,320513.845,320514.700000003,320530.46,323163.378,,,
fixation,canvas.Screen,0_8_42_0,2022-07-15T14:28:07.498Z,,,,,,4,699.9589999999735,timeout,,,0.49,,,,,,,,,,,,,,,,,0.47,true,323647.200000003,323646.66,323146.775,323147.799999997,323163.378,323863.337,,,
stimulus,canvas.Screen,0_8_42_1,2022-07-15T14:28:07.994Z,,,,,,4,279.56299999105977,response,,0.47,0.49,,,https://raw.githubusercontent.com/carero2/loss-perception/main/png/0.47blue1yellowb%3D1w%3D100v%3D74.png,https://raw.githubusercontent.com/carero2/loss-perception/main/png/0.49blue1yellowb%3D1w%3D100v%3D74.png,,,,,,,,,true,j,keypress(j),0.49,0.47,true,324143.5,324142.89999999106,323646.66,323871.39999999106,323863.337,324163.168,,,
choice,canvas.Screen,0_8_42_2,2022-07-15T14:28:08.997Z,,,,0.49,,4,999.9159999999683,timeout,,,0.49,,0.47,,,-2,-3,,,,,,,,,,,0.47,true,325147,325146.448,324146.712,324159,324163.168,325163.084,97,,
ITI,canvas.Screen,0_8_42_3,2022-07-15T14:28:09.497Z,,,2613,,,4,499.87900000001537,timeout,,,0.49,,,,,,,,,,,,,,,,,0.47,true,325646.700000003,325646.302,325146.448,325147.299999997,325163.084,325662.963,,,
trial,flow.Sequence,0_8_42,2022-07-15T14:28:09.497Z,,,,,,4,2482.923999999999,completion,,,0.49,,,,,,,,,,,,,,,,,0.47,true,325646.89999999106,325646.302,323146.775,323147.700000003,323163.378,325662.963,,,
fixation,canvas.Screen,0_8_43_0,2022-07-15T14:28:09.997Z,,,,,,6,699.9210000000312,timeout,,,0.545,,,,,,,,,,,,,,,,,0.515,false,326146.89999999106,326146.308,325646.302,325647.200000003,325662.963,326362.884,,,
stimulus,canvas.Screen,0_8_43_1,2022-07-15T14:28:10.579Z,,,,,,6,364.91599999699974,response,,0.545,0.545,,,https://raw.githubusercontent.com/carero2/loss-perception/main/png/0.545blue1yellowb%3D1w%3D100v%3D50.png,https://raw.githubusercontent.com/carero2/loss-perception/main/png/0.515blue1yellowb%3D1w%3D100v%3D50.png,,,,,,,,,true,j,keypress(j),0.515,0.515,false,326728.59999999404,326727.799999997,326146.308,326370.5,326362.884,326746.093,,,
choice,canvas.Screen,0_8_43_2,2022-07-15T14:28:11.580Z,,,,0.515,,6,999.8450000000303,timeout,,,0.545,,0.545,,,3,0,,,,,,,,,,,0.515,false,327729.89999999106,327729.346,326729.625,326743.89999999106,326746.093,327745.938,100,,
ITI,canvas.Screen,0_8_43_3,2022-07-15T14:28:12.080Z,,,2954,,,6,499.9519999999902,timeout,,,0.545,,,,,,,,,,,,,,,,,0.515,false,328229.799999997,328229.202,327729.346,327730.09999999404,327745.938,328245.89,,,
trial,flow.Sequence,0_8_43,2022-07-15T14:28:12.081Z,,,,,,6,2566.2390000000014,completion,,,0.545,,,,,,,,,,,,,,,,,0.515,false,328230.200000003,328229.202,325646.302,325647.09999999404,325662.963,328245.89,,,
fixation,canvas.Screen,0_8_44_0,2022-07-15T14:28:12.580Z,,,,,,4,666.5760000000009,timeout,,,0.51,,,,,,,,,,,,,,,,,0.49,true,328729.59999999404,328729.105,328229.202,328230.200000003,328245.89,328912.466,,,
stimulus,canvas.Screen,0_8_44_1,2022-07-15T14:28:13.364Z,,,,,,4,600.4339999910444,response,,0.49,0.51,,,https://raw.githubusercontent.com/carero2/loss-perception/main/png/0.49blue1yellowb%3D1w%3D100v%3D24.png,https://raw.githubusercontent.com/carero2/loss-perception/main/png/0.51blue1yellowb%3D1w%3D100v%3D24.png,,,,,,,,,true,j,keypress(j),0.51,0.49,true,329513.700000003,329512.89999999106,328729.105,328919.59999999404,328912.466,329555.84,,,
choice,canvas.Screen,0_8_44_2,2022-07-15T14:28:14.397Z,,,,0.51,,4,1006.3919999999925,timeout,,,0.51,,0.49,,,2,2,,,,,,,,,,,0.49,true,330546.09999999404,330545.627,329512.804,329528.5,329555.84,330562.232,102,,
ITI,canvas.Screen,0_8_44_3,2022-07-15T14:28:14.896Z,,,2076,,,4,499.8829999999725,timeout,,,0.51,,,,,,,,,,,,,,,,,0.49,true,331045.89999999106,331045.397,330545.627,330546.39999999106,330562.232,331062.115,,,
trial,flow.Sequence,0_8_44,2022-07-15T14:28:14.897Z,,,,,,4,2799.5069999999832,completion,,,0.51,,,,,,,,,,,,,,,,,0.49,true,331046.59999999404,331045.397,328229.202,328230.200000003,328245.89,331062.115,,,
1st block,flow.Loop,0_8,2022-07-15T14:28:14.897Z,,,,,,,138910.873,completion,,,,,,,,,,,,,,,,,,,,,,331046.799999997,331045.397,192117.92,192122.20000000298,192134.524,331062.115,,,
show amount,html.Screen,0_9,2022-07-15T14:28:22.759Z,,,,,,,7844.385000000009,response,,,,,,,,,,,,,,,,,Continue,click #Continue,,,,338908.700000003,338906.5,331045.397,331048.799999997,331062.115,338910.793,,,
second block,canvas.Screen,0_10,2022-07-15T14:28:25.835Z,,,,,,,3073.0069999970146,response,,,,,,,,,,,,,,,,,space,keypress(Space),,,,341984.299999997,341983.799999997,338894.268,338908.799999997,338910.793,341993.642,,,
fixation,canvas.Screen,0_11_0_0,2022-07-15T14:28:26.328Z,,,,,,4,666.6010000000242,timeout,,,0.51,,,,,,,,,,,,,,,,,0.49,false,342477.5,342476.917,341977.862,341984.5,341993.642,342660.243,,,
stimulus,canvas.Screen,0_11_0_1,2022-07-15T14:28:30.675Z,,,,,,4,4163.756999999983,response,,0.51,0.51,,,https://raw.githubusercontent.com/carero2/loss-perception/main/png/0.51blue1yellowb%3D1w%3D100v%3D43.png,https://raw.githubusercontent.com/carero2/loss-perception/main/png/0.49blue1yellowb%3D1w%3D100v%3D43.png,,,,,,,,,true,j,keypress(j),0.49,0.49,false,346824.5,346824,342476.917,342667.700000003,342660.243,346842.874,,,
choice,canvas.Screen,0_11_0_2,2022-07-15T14:28:31.677Z,,,,0.49,,4,999.8179999999702,timeout,,,0.51,,0.51,,,-2,,-2,,,,,,,,,,0.49,false,347826.700000003,347826.096,346827.595,346840.59999999404,346842.874,347842.692,100,,
ITI,canvas.Screen,0_11_0_3,2022-07-15T14:28:32.177Z,,,2104,,,4,500.02700000000186,timeout,,,0.51,,,,,,,,,,,,,,,,,0.49,false,348326.59999999404,348326.031,347826.096,347827,347842.692,348342.719,,,
trial,flow.Sequence,0_11_0,2022-07-15T14:28:32.177Z,,,,,,4,6332.389000000025,completion,,,0.51,,,,,,,,,,,,,,,,,0.49,false,348326.799999997,348326.031,341977.862,341984.5,341993.642,348342.719,,,
fixation,canvas.Screen,0_11_1_0,2022-07-15T14:28:32.677Z,,,,,,2,666.5560000000405,timeout,,,0.495,,,,,,,,,,,,,,,,,0.485,true,348826.5,348825.976,348326.031,348327.09999999404,348342.719,349009.275,,,
stimulus,canvas.Screen,0_11_1_1,2022-07-15T14:28:37.506Z,,,,,,2,4644.724999999977,response,,0.485,0.495,,,https://raw.githubusercontent.com/carero2/loss-perception/main/png/0.485blue1yellowb%3D1w%3D100v%3D8.png,https://raw.githubusercontent.com/carero2/loss-perception/main/png/0.495blue1yellowb%3D1w%3D100v%3D8.png,,,,,,,,,true,f,keypress(f),0.495,0.485,true,353655.799999997,353654,348825.976,349017.09999999404,349009.275,353675.089,,,
choice,canvas.Screen,0_11_1_2,2022-07-15T14:28:38.509Z,,,,0.485,,2,999.954000000027,timeout,,,0.495,,0.495,,,-3,,-5,,,,,,,,,,0.485,true,354658.89999999106,354658.373,353659.153,353671,353675.089,354675.043,97,,
ITI,canvas.Screen,0_11_1_3,2022-07-15T14:28:39.010Z,,,2819,,,2,499.8969999999972,timeout,,,0.495,,,,,,,,,,,,,,,,,0.485,true,355159.299999997,355158.222,354658.373,354659.200000003,354675.043,355174.94,,,
trial,flow.Sequence,0_11_1,2022-07-15T14:28:39.010Z,,,,,,2,6815.503000000026,completion,,,0.495,,,,,,,,,,,,,,,,,0.485,true,355159.700000003,355158.222,348326.031,348327,348342.719,355174.94,,,
fixation,canvas.Screen,0_11_2_0,2022-07-15T14:28:39.509Z,,,,,,2,699.9000000000233,timeout,,,0.505,,,,,,,,,,,,,,,,,0.495,true,355658.59999999404,355658.12,355158.222,355159.89999999106,355174.94,355874.84,,,
stimulus,canvas.Screen,0_11_2_1,2022-07-15T14:28:39.995Z,,,,,,2,269.0599999910337,response,,0.495,0.505,,,https://raw.githubusercontent.com/carero2/loss-perception/main/png/0.495blue1yellowb%3D1w%3D100v%3D8.png,https://raw.githubusercontent.com/carero2/loss-perception/main/png/0.505blue1yellowb%3D1w%3D100v%3D8.png,,,,,,,,,true,j,keypress(j),0.505,0.495,true,356144.700000003,356143.89999999106,355658.12,355883.39999999106,355874.84,356174.774,,,
choice,canvas.Screen,0_11_2_2,2022-07-15T14:28:41.010Z,,,,0.505,,2,999.9100000000326,timeout,,,0.505,,0.495,,,1,,-4,,,,,,,,,,0.495,true,357159.299999997,357157.993,356158.252,356158.700000003,356174.774,357174.684,98,,
ITI,canvas.Screen,0_11_2_3,2022-07-15T14:28:41.509Z,,,2561,,,2,499.7469999999739,timeout,,,0.505,,,,,,,,,,,,,,,,,0.495,true,357658.299999997,357657.884,357157.993,357159.39999999106,357174.684,357674.431,,,
trial,flow.Sequence,0_11_2,2022-07-15T14:28:41.509Z,,,,,,2,2482.9440000000177,completion,,,0.505,,,,,,,,,,,,,,,,,0.495,true,357658.700000003,357657.884,355158.222,355159.799999997,355174.94,357674.431,,,
fixation,canvas.Screen,0_11_3_0,2022-07-15T14:28:42.009Z,,,,,,4,699.9060000000172,timeout,,,0.49,,,,,,,,,,,,,,,,,0.47,true,358158.200000003,358157.777,357657.884,357658.799999997,357674.431,358374.337,,,
stimulus,canvas.Screen,0_11_3_1,2022-07-15T14:28:42.290Z,,,,,,4,64.8630000029807,response,,0.47,0.49,,,https://raw.githubusercontent.com/carero2/loss-perception/main/png/0.47blue1yellowb%3D1w%3D100v%3D27.png,https://raw.githubusercontent.com/carero2/loss-perception/main/png/0.49blue1yellowb%3D1w%3D100v%3D27.png,,,,,,,,,true,j,keypress(j),0.49,0.47,true,358439.799999997,358439.200000003,358157.777,358382.59999999404,358374.337,358457.667,,,
choice,canvas.Screen,0_11_3_2,2022-07-15T14:28:43.292Z,,,,0.49,,4,999.8420000000042,timeout,,,0.49,,0.47,,,-2,,-6,,,,,,,,,,0.47,true,359441.39999999106,359440.827,358441.112,358454.59999999404,358457.667,359457.509,96,,
ITI,canvas.Screen,0_11_3_3,2022-07-15T14:28:43.792Z,,,2193,,,4,499.86900000000605,timeout,,,0.49,,,,,,,,,,,,,,,,,0.47,true,359941.200000003,359940.708,359440.827,359442,359457.509,359957.378,,,
