sender,sender_type,sender_id,timestamp,meta,,ITI_value,choice,consent,diff_net_value,duration,ended_on,gain_color,left,left_side,loss_color,not_choice,picture_left,picture_right,points,points1Block,points2Block,points3Block,points4Block,points5Block,points6Block,pointsBlock,responded,response,response_action,right,right_side,switch_sides,time_commit,time_end,time_render,time_run,time_show,time_switch,totalPoints,totalPoints_practice,url
welcome,html.Screen,0_0,2022-07-15T21:59:24.771Z,"{""labjs_version"":""20.2.4"",""labjs_build"":{""flavor"":""production"",""commit"":""f5b4a49f956347addd546a832a3327688c2c0fef""},""location"":""https://run.pavlovia.org/Rey/loss-perception/"",""userAgent"":""Mozilla/5.0 (X11; Linux x86_64) AppleWebKit/537.36 (KHTML, like Gecko) Chrome/103.0.5060.114 Safari/537.36"",""platform"":""Linux x86_64"",""language"":""en-US"",""locale"":""en-US"",""timeZone"":""America/New_York"",""timezoneOffset"":240,""screen_width"":1280,""screen_height"":800,""scroll_width"":1143,""scroll_height"":682,""window_innerWidth"":1143,""window_innerHeight"":730,""devicePixelRatio"":0.8999999761581421}",,,,,,6919.6919999761585,response,blue,,,yellow,,,,,0,0,0,0,0,0,0,,Continue,click #Continue,,,,12782.100000023842,12777.899999976158,5841.542,5857.600000023842,5858.208,12797.056,100,100,{}
consent,html.Form,0_1,2022-07-15T22:00:05.471Z,,,,,true,,40684.34399997616,form submission,,,,,,,,,,,,,,,,,,,,,,53482.10000002384,53481.39999997616,12763.724,12782.399999976158,12797.056,53477.098,,,
ProlificID,html.Form,0_2,2022-07-15T22:00:17.411Z,,,,,,,11943.701999952318,form submission,,,,,,,,,,,,,,,,,,,,,,65421.60000002384,65420.799999952316,53460.432,53482.60000002384,53477.098,65465.268,,,
instructions,html.Form,0_3,2022-07-15T22:01:21.531Z,,,,,,,64075.832000023845,form submission,,,,,,,,,,,,,,,,,,,,,,129541.89999997616,129541.10000002384,65415.27,65421.89999997616,65465.268,129570.31,,,
Practice,canvas.Screen,0_4,2022-07-15T22:01:33.903Z,,,,,,,12330.58999997616,response,,,,,,,,,,,,,,,,,space,keypress(Space),,,,141913.5,141900.89999997616,129536.978,129542.29999995232,129570.31,141920.627,,,
fixation,canvas.Screen,0_5_0_0,2022-07-15T22:01:34.401Z,,,,,,6,506.5879999999888,timeout,,,0.515,,,,,,,,,,,,,,,,,0.485,true,142411.89999997616,142410.549,141903.961,141914.39999997616,141920.627,142427.215,,,
stimulus,canvas.Screen,0_5_0_1,2022-07-15T22:01:35.723Z,,,,,,6,1300.6849999761616,response,,0.485,0.515,,,https://raw.githubusercontent.com/carero2/loss-perception/main/png/0.485blue1yellowb%3D1w%3D100v%3D38.png,https://raw.githubusercontent.com/carero2/loss-perception/main/png/0.515blue1yellowb%3D1w%3D100v%3D38.png,,,,,,,,,true,j,keypress(j),0.515,0.485,true,143734.10000002384,143727.89999997616,142410.549,142412,142427.215,143745.45,,,
choice,canvas.Screen,0_5_0_2,2022-07-15T22:01:37.725Z,,,,0.515,,6,2004.2519999999786,timeout,,,0.515,,0.485,,,3,,,,,,,3,,,,,0.485,true,145735.39999997616,145733.036,143728.784,143743,143745.45,145749.702,,103,
timeout,canvas.Screen,0_5_0_3,2022-07-15T22:01:37.729Z,,,,,,6,NaN,skipped,,,0.515,,,,,,,,,,,,,,,,,0.485,true,145740.10000002384,145733.036,,145739.5,,145749.702,,,
ITI,canvas.Screen,0_5_0_4,2022-07-15T22:01:38.231Z,,,,,,6,506.41599999999744,timeout,,,0.515,,,,,,,,,,,,,,,,,0.485,true,146241.69999992847,146239.452,145733.036,145740.60000002384,145749.702,146256.118,,,
trial,flow.Sequence,0_5_0,2022-07-15T22:01:38.232Z,,,,,,6,4318.8249999999825,completion,,,0.515,,,,,,,,,,,,,,,,,0.485,true,146242.79999995232,146239.452,141903.961,141914.29999995232,141920.627,146256.118,,,
fixation,canvas.Screen,0_5_1_0,2022-07-15T22:01:38.733Z,,,,,,9,501.5020000000077,timeout,,,0.485,,,,,,,,,,,,,,,,,0.53,false,146743.69999992847,146740.954,146239.452,146243.39999997616,146256.118,146757.62,,,
stimulus,canvas.Screen,0_5_1_1,2022-07-15T22:01:40.449Z,,,,,,9,1699.2799999761628,response,,0.485,0.485,,,https://raw.githubusercontent.com/carero2/loss-perception/main/png/0.485blue1yellowb%3D1w%3D100v%3D27.png,https://raw.githubusercontent.com/carero2/loss-perception/main/png/0.53blue1yellowb%3D1w%3D100v%3D27.png,,,,,,,,,true,j,keypress(j),0.53,0.53,false,148459.39999997616,148456.89999997616,146740.954,146744.19999992847,146757.62,148475.891,,,
choice,canvas.Screen,0_5_1_2,2022-07-15T22:01:42.456Z,,,,0.53,,9,2005.505999999994,timeout,,,0.485,,0.485,,,6,,,,,,,9,,,,,0.53,false,150467.10000002384,150464.731,148459.225,148461.5,148475.891,150481.397,,109,
timeout,canvas.Screen,0_5_1_3,2022-07-15T22:01:42.460Z,,,,,,9,NaN,skipped,,,0.485,,,,,,,,,,,,,,,,,0.53,false,150471.10000002384,150464.731,,150470.39999997616,,150481.397,,,
ITI,canvas.Screen,0_5_1_4,2022-07-15T22:01:42.963Z,,,,,,9,506.4629999999888,timeout,,,0.485,,,,,,,,,,,,,,,,,0.53,false,150973.29999995232,150971.194,150464.731,150471.5,150481.397,150987.86,,,
trial,flow.Sequence,0_5_1,2022-07-15T22:01:42.963Z,,,,,,9,4715.076000000001,completion,,,0.485,,,,,,,,,,,,,,,,,0.53,false,150974.10000002384,150971.194,146239.452,146243.19999992847,146256.118,150987.86,,,
fixation,canvas.Screen,0_5_2_0,2022-07-15T22:01:43.465Z,,,,,,6,501.6610000000219,timeout,,,0.545,,,,,,,,,,,,,,,,,0.515,false,151475.39999997616,151472.855,150971.194,150974.5,150987.86,151489.521,,,
stimulus,canvas.Screen,0_5_2_1,2022-07-15T22:01:44.430Z,,,,,,6,949.3789999761502,response,,0.545,0.545,,,https://raw.githubusercontent.com/carero2/loss-perception/main/png/0.545blue1yellowb%3D1w%3D100v%3D45.png,https://raw.githubusercontent.com/carero2/loss-perception/main/png/0.515blue1yellowb%3D1w%3D100v%3D45.png,,,,,,,,,true,f,keypress(f),0.515,0.515,false,152440.60000002384,152438.89999997616,151472.855,151475.89999997616,151489.521,152457.674,,,
choice,canvas.Screen,0_5_2_2,2022-07-15T22:01:46.435Z,,,,0.545,,6,2003.1089999999967,timeout,,,0.545,,0.515,,,9,,,,,,,18,,,,,0.515,false,154445.10000002384,154444.117,152441.008,152442.5,152457.674,154460.783,,118,
timeout,canvas.Screen,0_5_2_3,2022-07-15T22:01:46.436Z,,,,,,6,NaN,skipped,,,0.545,,,,,,,,,,,,,,,,,0.515,false,154446.19999992847,154444.117,,154446,,154460.783,,,
ITI,canvas.Screen,0_5_2_4,2022-07-15T22:01:46.941Z,,,,,,6,506.46199999999953,timeout,,,0.545,,,,,,,,,,,,,,,,,0.515,false,154952,154950.579,154444.117,154446.29999995232,154460.783,154967.245,,,
trial,flow.Sequence,0_5_2,2022-07-15T22:01:46.942Z,,,,,,6,3962.719000000012,completion,,,0.545,,,,,,,,,,,,,,,,,0.515,false,154952.5,154950.579,150971.194,150974.29999995232,150987.86,154967.245,,,
fixation,canvas.Screen,0_5_3_0,2022-07-15T22:01:47.443Z,,,,,,12,501.6009999999951,timeout,,,0.53,,,,,,,,,,,,,,,,,0.47,false,155453.5,155452.18,154950.579,154952.89999997616,154967.245,155468.846,,,
stimulus,canvas.Screen,0_5_3_1,2022-07-15T22:01:48.478Z,,,,,,12,1016.0539999761677,response,,0.53,0.53,,,https://raw.githubusercontent.com/carero2/loss-perception/main/png/0.53blue1yellowb%3D1w%3D100v%3D27.png,https://raw.githubusercontent.com/carero2/loss-perception/main/png/0.47blue1yellowb%3D1w%3D100v%3D27.png,,,,,,,,,true,f,keypress(f),0.47,0.47,false,156488.79999995232,156484.89999997616,155452.18,155453.89999997616,155468.846,156503.772,,,
choice,canvas.Screen,0_5_3_2,2022-07-15T22:01:50.481Z,,,,0.53,,12,2003.2699999999895,timeout,,,0.53,,0.47,,,6,,,,,,,24,,,,,0.47,false,158491.29999995232,158490.376,156487.106,156493,156503.772,158507.042,,124,
timeout,canvas.Screen,0_5_3_3,2022-07-15T22:01:50.481Z,,,,,,12,NaN,skipped,,,0.53,,,,,,,,,,,,,,,,,0.47,false,158492.19999992847,158490.376,,158492,,158507.042,,,
ITI,canvas.Screen,0_5_3_4,2022-07-15T22:01:50.988Z,,,,,,12,506.4760000000242,timeout,,,0.53,,,,,,,,,,,,,,,,,0.47,false,158998.5,158996.852,158490.376,158492.19999992847,158507.042,159013.518,,,
trial,flow.Sequence,0_5_3,2022-07-15T22:01:50.988Z,,,,,,12,4029.607000000018,completion,,,0.53,,,,,,,,,,,,,,,,,0.47,false,158998.89999997616,158996.852,154950.579,154952.79999995232,154967.245,159013.518,,,
fixation,canvas.Screen,0_5_4_0,2022-07-15T22:01:51.489Z,,,,,,6,501.6039999999921,timeout,,,0.485,,,,,,,,,,,,,,,,,0.455,true,159499.79999995232,159498.456,158996.852,158999.10000002384,159013.518,159515.122,,,
stimulus,canvas.Screen,0_5_4_1,2022-07-15T22:01:52.882Z,,,,,,6,1372.7779999761551,response,,0.455,0.485,,,https://raw.githubusercontent.com/carero2/loss-perception/main/png/0.455blue1yellowb%3D1w%3D100v%3D67.png,https://raw.githubusercontent.com/carero2/loss-perception/main/png/0.485blue1yellowb%3D1w%3D100v%3D67.png,,,,,,,,,true,j,keypress(j),0.485,0.455,true,160893,160887.89999997616,159498.456,159499.79999995232,159515.122,160916.688,,,
choice,canvas.Screen,0_5_4_2,2022-07-15T22:01:54.896Z,,,,0.485,,6,2004.4700000000012,timeout,,,0.485,,0.455,,,-3,,,,,,,21,,,,,0.455,true,162906.60000002384,162904.492,160900.022,160900.69999992847,160916.688,162921.158,,121,
timeout,canvas.Screen,0_5_4_3,2022-07-15T22:01:54.899Z,,,,,,6,NaN,skipped,,,0.485,,,,,,,,,,,,,,,,,0.455,true,162909.79999995232,162904.492,,162909.19999992847,,162921.158,,,
ITI,canvas.Screen,0_5_4_4,2022-07-15T22:01:55.403Z,,,,,,6,506.4649999999965,timeout,,,0.485,,,,,,,,,,,,,,,,,0.455,true,163413.39999997616,163410.957,162904.492,162910,162921.158,163427.623,,,
trial,flow.Sequence,0_5_4,2022-07-15T22:01:55.403Z,,,,,,6,4397.438999999984,completion,,,0.485,,,,,,,,,,,,,,,,,0.455,true,163414.10000002384,163410.957,158996.852,158999,159013.518,163427.623,,,
fixation,canvas.Screen,0_5_5_0,2022-07-15T22:01:55.904Z,,,,,,18,501.6130000000121,timeout,,,0.545,,,,,,,,,,,,,,,,,0.455,true,163914.69999992847,163912.57,163410.957,163414.39999997616,163427.623,163929.236,,,
stimulus,canvas.Screen,0_5_5_1,2022-07-15T22:01:56.914Z,,,,,,18,989.6639999761537,response,,0.455,0.545,,,https://raw.githubusercontent.com/carero2/loss-perception/main/png/0.455blue1yellowb%3D1w%3D100v%3D57.png,https://raw.githubusercontent.com/carero2/loss-perception/main/png/0.545blue1yellowb%3D1w%3D100v%3D57.png,,,,,,,,,true,j,keypress(j),0.545,0.455,true,164924.60000002384,164918.89999997616,163912.57,163914.89999997616,163929.236,164930.872,,,
choice,canvas.Screen,0_5_5_2,2022-07-15T22:01:58.908Z,,,,0.545,,18,2003.1609999999928,timeout,,,0.545,,0.455,,,9,,,,,,,30,,,,,0.455,true,166918.39999997616,166917.367,164914.206,164928.79999995232,164930.872,166934.033,,130,
timeout,canvas.Screen,0_5_5_3,2022-07-15T22:01:58.908Z,,,,,,18,NaN,skipped,,,0.545,,,,,,,,,,,,,,,,,0.455,true,166919.10000002384,166917.367,,166919,,166934.033,,,
ITI,canvas.Screen,0_5_5_4,2022-07-15T22:01:59.415Z,,,,,,18,506.42399999999907,timeout,,,0.545,,,,,,,,,,,,,,,,,0.455,true,167425.89999997616,167423.791,166917.367,166919.19999992847,166934.033,167440.457,,,
trial,flow.Sequence,0_5_5,2022-07-15T22:01:59.416Z,,,,,,18,3996.168000000005,completion,,,0.545,,,,,,,,,,,,,,,,,0.455,true,167426.5,167423.791,163410.957,163414.29999995232,163427.623,167440.457,,,
fixation,canvas.Screen,0_5_6_0,2022-07-15T22:01:59.916Z,,,,,,18,501.6030000000028,timeout,,,0.545,,,,,,,,,,,,,,,,,0.455,false,167927,167925.394,167423.791,167426.89999997616,167440.457,167942.06,,,
stimulus,canvas.Screen,0_5_6_1,2022-07-15T22:02:00.712Z,,,,,,18,776.8399999761605,response,,0.545,0.545,,,https://raw.githubusercontent.com/carero2/loss-perception/main/png/0.545blue1yellowb%3D1w%3D100v%3D95.png,https://raw.githubusercontent.com/carero2/loss-perception/main/png/0.455blue1yellowb%3D1w%3D100v%3D95.png,,,,,,,,,true,f,keypress(f),0.455,0.455,false,168722.69999992847,168718.89999997616,167925.394,167927.39999997616,167942.06,168743.652,,,
choice,canvas.Screen,0_5_6_2,2022-07-15T22:02:02.721Z,,,,0.545,,18,2002.524000000005,timeout,,,0.545,,0.455,,,9,,,,,,,39,,,,,0.455,false,170731.69999992847,170729.51,168726.986,168731.89999997616,168743.652,170746.176,,139,
timeout,canvas.Screen,0_5_6_3,2022-07-15T22:02:02.725Z,,,,,,18,NaN,skipped,,,0.545,,,,,,,,,,,,,,,,,0.455,false,170735.29999995232,170729.51,,170734.89999997616,,170746.176,,,
ITI,canvas.Screen,0_5_6_4,2022-07-15T22:02:03.227Z,,,,,,18,506.46099999998114,timeout,,,0.545,,,,,,,,,,,,,,,,,0.455,false,171237.60000002384,171235.971,170729.51,170735.60000002384,170746.176,171252.637,,,
trial,flow.Sequence,0_5_6,2022-07-15T22:02:03.227Z,,,,,,18,3795.5139999999956,completion,,,0.545,,,,,,,,,,,,,,,,,0.455,false,171238.10000002384,171235.971,167423.791,167426.79999995232,167440.457,171252.637,,,
fixation,canvas.Screen,0_5_7_0,2022-07-15T22:02:03.729Z,,,,,,12,501.6720000000205,timeout,,,0.53,,,,,,,,,,,,,,,,,0.47,false,171739.19999992847,171737.643,171235.971,171238.5,171252.637,171754.309,,,
stimulus,canvas.Screen,0_5_7_1,2022-07-15T22:02:04.457Z,,,,,,12,711.5909999761498,response,,0.53,0.53,,,https://raw.githubusercontent.com/carero2/loss-perception/main/png/0.53blue1yellowb%3D1w%3D100v%3D74.png,https://raw.githubusercontent.com/carero2/loss-perception/main/png/0.47blue1yellowb%3D1w%3D100v%3D74.png,,,,,,,,,true,f,keypress(f),0.47,0.47,false,172467.89999997616,172465.89999997616,171737.643,171739.39999997616,171754.309,172472.561,,,
choice,canvas.Screen,0_5_7_2,2022-07-15T22:02:06.448Z,,,,0.53,,12,2002.2550000000047,timeout,,,0.53,,0.47,,,6,,,,,,,45,,,,,0.47,false,174458.89999997616,174458.15,172455.895,172469.29999995232,172472.561,174474.816,,145,
timeout,canvas.Screen,0_5_7_3,2022-07-15T22:02:06.449Z,,,,,,12,NaN,skipped,,,0.53,,,,,,,,,,,,,,,,,0.47,false,174459.89999997616,174458.15,,174459.69999992847,,174474.816,,,
ITI,canvas.Screen,0_5_7_4,2022-07-15T22:02:06.956Z,,,,,,12,506.4660000000149,timeout,,,0.53,,,,,,,,,,,,,,,,,0.47,false,174966.60000002384,174964.616,174458.15,174460,174474.816,174981.282,,,
trial,flow.Sequence,0_5_7,2022-07-15T22:02:06.957Z,,,,,,12,3711.979000000021,completion,,,0.53,,,,,,,,,,,,,,,,,0.47,false,174967.60000002384,174964.616,171235.971,171238.39999997616,171252.637,174981.282,,,
fixation,canvas.Screen,0_5_8_0,2022-07-15T22:02:07.457Z,,,,,,6,501.5540000000037,timeout,,,0.515,,,,,,,,,,,,,,,,,0.485,false,175467.39999997616,175466.17,174964.616,174968.10000002384,174981.282,175482.836,,,
stimulus,canvas.Screen,0_5_8_1,2022-07-15T22:02:08.354Z,,,,,,6,879.0639999761479,response,,0.515,0.515,,,https://raw.githubusercontent.com/carero2/loss-perception/main/png/0.515blue1yellowb%3D1w%3D100v%3D70.png,https://raw.githubusercontent.com/carero2/loss-perception/main/png/0.485blue1yellowb%3D1w%3D100v%3D70.png,,,,,,,,,true,f,keypress(f),0.485,0.485,false,176364.60000002384,176361.89999997616,175466.17,175467.5,175482.836,176384.419,,,
choice,canvas.Screen,0_5_8_2,2022-07-15T22:02:10.363Z,,,,0.515,,6,2002.8450000000012,timeout,,,0.515,,0.485,,,3,,,,,,,48,,,,,0.485,false,178373.10000002384,178370.598,176367.753,176367.29999995232,176384.419,178387.264,,148,
timeout,canvas.Screen,0_5_8_3,2022-07-15T22:02:10.366Z,,,,,,6,NaN,skipped,,,0.515,,,,,,,,,,,,,,,,,0.485,false,178376.60000002384,178370.598,,178376.10000002384,,178387.264,,,
ITI,canvas.Screen,0_5_8_4,2022-07-15T22:02:10.868Z,,,,,,6,506.5249999999942,timeout,,,0.515,,,,,,,,,,,,,,,,,0.485,false,178879,178877.123,178370.598,178376.89999997616,178387.264,178893.789,,,
trial,flow.Sequence,0_5_8,2022-07-15T22:02:10.869Z,,,,,,6,3895.840999999986,completion,,,0.515,,,,,,,,,,,,,,,,,0.485,false,178879.60000002384,178877.123,174964.616,174968,174981.282,178893.789,,,
fixation,canvas.Screen,0_5_9_0,2022-07-15T22:02:11.370Z,,,,,,6,501.5540000000037,timeout,,,0.485,,,,,,,,,,,,,,,,,0.455,true,179380.60000002384,179378.677,178877.123,178880,178893.789,179395.343,,,
stimulus,canvas.Screen,0_5_9_1,2022-07-15T22:02:12.624Z,,,,,,6,1235.5569999761647,response,,0.455,0.485,,,https://raw.githubusercontent.com/carero2/loss-perception/main/png/0.455blue1yellowb%3D1w%3D100v%3D65.png,https://raw.githubusercontent.com/carero2/loss-perception/main/png/0.485blue1yellowb%3D1w%3D100v%3D65.png,,,,,,,,,true,f,keypress(f),0.485,0.455,true,180634.39999997616,180630.89999997616,179378.677,179380.89999997616,179395.343,180646.972,,,
choice,canvas.Screen,0_5_9_2,2022-07-15T22:02:14.625Z,,,,0.455,,6,2003.9769999999844,timeout,,,0.485,,0.485,,,-9,,,,,,,39,,,,,0.455,true,182636,182634.283,180630.306,180640.69999992847,180646.972,182650.949,,139,
timeout,canvas.Screen,0_5_9_3,2022-07-15T22:02:14.631Z,,,,,,6,NaN,skipped,,,0.485,,,,,,,,,,,,,,,,,0.455,true,182641.19999992847,182634.283,,182640.5,,182650.949,,,
ITI,canvas.Screen,0_5_9_4,2022-07-15T22:02:15.132Z,,,,,,6,506.47200000000885,timeout,,,0.485,,,,,,,,,,,,,,,,,0.455,true,183142.89999997616,183140.755,182634.283,182641.69999992847,182650.949,183157.421,,,
trial,flow.Sequence,0_5_9,2022-07-15T22:02:15.133Z,,,,,,6,4246.966000000015,completion,,,0.485,,,,,,,,,,,,,,,,,0.455,true,183143.5,183140.755,178877.123,178879.89999997616,178893.789,183157.421,,,
fixation,canvas.Screen,0_5_10_0,2022-07-15T22:02:15.633Z,,,,,,6,501.50500000000466,timeout,,,0.545,,,,,,,,,,,,,,,,,0.515,false,183644,183642.26,183140.755,183143.79999995232,183157.421,183658.926,,,
stimulus,canvas.Screen,0_5_10_1,2022-07-15T22:02:16.566Z,,,,,,6,915.9739999761514,response,,0.545,0.545,,,https://raw.githubusercontent.com/carero2/loss-perception/main/png/0.545blue1yellowb%3D1w%3D100v%3D7.png,https://raw.githubusercontent.com/carero2/loss-perception/main/png/0.515blue1yellowb%3D1w%3D100v%3D7.png,,,,,,,,,true,f,keypress(f),0.515,0.515,false,184576.69999992847,184574.89999997616,183642.26,183644.39999997616,183658.926,184593.888,,,
choice,canvas.Screen,0_5_10_2,2022-07-15T22:02:18.571Z,,,,0.545,,6,2002.9609999999811,timeout,,,0.545,,0.515,,,9,,,,,,,48,,,,,0.515,false,186581.69999992847,186580.183,184577.222,184578.79999995232,184593.888,186596.849,,148,
timeout,canvas.Screen,0_5_10_3,2022-07-15T22:02:18.575Z,,,,,,6,NaN,skipped,,,0.545,,,,,,,,,,,,,,,,,0.515,false,186585.29999995232,186580.183,,186584.69999992847,,186596.849,,,
ITI,canvas.Screen,0_5_10_4,2022-07-15T22:02:19.078Z,,,,,,6,506.46100000001024,timeout,,,0.545,,,,,,,,,,,,,,,,,0.515,false,187088.5,187086.644,186580.183,186585.60000002384,186596.849,187103.31,,,
trial,flow.Sequence,0_5_10,2022-07-15T22:02:19.078Z,,,,,,6,3929.222999999998,completion,,,0.545,,,,,,,,,,,,,,,,,0.515,false,187089.10000002384,187086.644,183140.755,183143.60000002384,183157.421,187103.31,,,
fixation,canvas.Screen,0_5_11_0,2022-07-15T22:02:19.578Z,,,,,,9,501.6119999999937,timeout,,,0.485,,,,,,,,,,,,,,,,,0.53,true,187588.89999997616,187588.256,187086.644,187089.5,187103.31,187604.922,,,
stimulus,canvas.Screen,0_5_11_1,2022-07-15T22:02:20.621Z,,,,,,9,1019.9779999761668,response,,0.53,0.485,,,https://raw.githubusercontent.com/carero2/loss-perception/main/png/0.53blue1yellowb%3D1w%3D100v%3D11.png,https://raw.githubusercontent.com/carero2/loss-perception/main/png/0.485blue1yellowb%3D1w%3D100v%3D11.png,,,,,,,,,true,f,keypress(f),0.485,0.53,true,188631.29999995232,188624.89999997616,187588.256,187589,187604.922,188656.505,,,
choice,canvas.Screen,0_5_11_2,2022-07-15T22:02:22.635Z,,,,0.53,,9,2003.3819999999832,timeout,,,0.485,,0.485,,,6,,,,,,,54,,,,,0.53,true,190645.79999995232,190643.221,188639.839,188642.5,188656.505,190659.887,,154,
timeout,canvas.Screen,0_5_11_3,2022-07-15T22:02:22.638Z,,,,,,9,NaN,skipped,,,0.485,,,,,,,,,,,,,,,,,0.53,true,190648.89999997616,190643.221,,190648.29999995232,,190659.887,,,
ITI,canvas.Screen,0_5_11_4,2022-07-15T22:02:23.141Z,,,,,,9,506.4110000000219,timeout,,,0.485,,,,,,,,,,,,,,,,,0.53,true,191151.60000002384,191149.632,190643.221,190649.10000002384,190659.887,191166.298,,,
trial,flow.Sequence,0_5_11,2022-07-15T22:02:23.141Z,,,,,,9,4046.3220000000147,completion,,,0.485,,,,,,,,,,,,,,,,,0.53,true,191152.10000002384,191149.632,187086.644,187089.39999997616,187103.31,191166.298,,,
fixation,canvas.Screen,0_5_12_0,2022-07-15T22:02:23.642Z,,,,,,6,501.6039999999921,timeout,,,0.545,,,,,,,,,,,,,,,,,0.515,true,191652.79999995232,191651.236,191149.632,191152.5,191166.298,191667.902,,,
stimulus,canvas.Screen,0_5_12_1,2022-07-15T22:02:24.793Z,,,,,,6,1131.9979999761563,response,,0.515,0.545,,,https://raw.githubusercontent.com/carero2/loss-perception/main/png/0.515blue1yellowb%3D1w%3D100v%3D96.png,https://raw.githubusercontent.com/carero2/loss-perception/main/png/0.545blue1yellowb%3D1w%3D100v%3D96.png,,,,,,,,,true,j,keypress(j),0.545,0.515,true,192803.39999997616,192799.89999997616,191651.236,191653,191667.902,192819.484,,,
choice,canvas.Screen,0_5_12_2,2022-07-15T22:02:26.797Z,,,,0.545,,6,2003.6630000000005,timeout,,,0.545,,0.515,,,9,,,,,,,63,,,,,0.515,true,194807.89999997616,194806.481,192802.818,192807.89999997616,192819.484,194823.147,,163,
timeout,canvas.Screen,0_5_12_3,2022-07-15T22:02:26.800Z,,,,,,6,NaN,skipped,,,0.545,,,,,,,,,,,,,,,,,0.515,true,194810.60000002384,194806.481,,194810,,194823.147,,,
ITI,canvas.Screen,0_5_12_4,2022-07-15T22:02:27.304Z,,,,,,6,506.53100000001723,timeout,,,0.545,,,,,,,,,,,,,,,,,0.515,true,195314.60000002384,195313.012,194806.481,194810.89999997616,194823.147,195329.678,,,
trial,flow.Sequence,0_5_12,2022-07-15T22:02:27.305Z,,,,,,6,4146.713999999978,completion,,,0.545,,,,,,,,,,,,,,,,,0.515,true,195315.19999992847,195313.012,191149.632,191152.39999997616,191166.298,195329.678,,,
fixation,canvas.Screen,0_5_13_0,2022-07-15T22:02:27.806Z,,,,,,6,501.5439999999944,timeout,,,0.485,,,,,,,,,,,,,,,,,0.455,true,195816.19999992847,195814.556,195313.012,195315.60000002384,195329.678,195831.222,,,
stimulus,canvas.Screen,0_5_13_1,2022-07-15T22:02:29.208Z,,,,,,6,1384.6779999761493,response,,0.455,0.485,,,https://raw.githubusercontent.com/carero2/loss-perception/main/png/0.455blue1yellowb%3D1w%3D100v%3D69.png,https://raw.githubusercontent.com/carero2/loss-perception/main/png/0.485blue1yellowb%3D1w%3D100v%3D69.png,,,,,,,,,true,j,keypress(j),0.485,0.455,true,197219,197215.89999997616,195814.556,195816.60000002384,195831.222,197232.83,,,
choice,canvas.Screen,0_5_13_2,2022-07-15T22:02:31.211Z,,,,0.485,,6,2004.4740000000165,timeout,,,0.485,,0.455,,,-3,,,,,,,60,,,,,0.455,true,199221.5,199220.638,197216.164,197223.29999995232,197232.83,199237.304,,160,
timeout,canvas.Screen,0_5_13_3,2022-07-15T22:02:31.212Z,,,,,,6,NaN,skipped,,,0.485,,,,,,,,,,,,,,,,,0.455,true,199222.10000002384,199220.638,,199222.10000002384,,199237.304,,,
ITI,canvas.Screen,0_5_13_4,2022-07-15T22:02:31.719Z,,,,,,6,539.7569999999832,timeout,,,0.485,,,,,,,,,,,,,,,,,0.455,true,199729.10000002384,199727.063,199220.638,199222.29999995232,199237.304,199777.061,,,
trial,flow.Sequence,0_5_13,2022-07-15T22:02:31.719Z,,,,,,6,4397.38499999998,completion,,,0.485,,,,,,,,,,,,,,,,,0.455,true,199729.60000002384,199727.063,195313.012,195315.39999997616,195329.678,199777.061,,,
fixation,canvas.Screen,0_5_14_0,2022-07-15T22:02:32.254Z,,,,,,12,501.7640000000247,timeout,,,0.53,,,,,,,,,,,,,,,,,0.47,false,200264.5,200262.159,199727.063,199730,199777.061,200278.825,,,
stimulus,canvas.Screen,0_5_14_1,2022-07-15T22:02:33.175Z,,,,,,12,905.0749999761465,response,,0.53,0.53,,,https://raw.githubusercontent.com/carero2/loss-perception/main/png/0.53blue1yellowb%3D1w%3D100v%3D87.png,https://raw.githubusercontent.com/carero2/loss-perception/main/png/0.47blue1yellowb%3D1w%3D100v%3D87.png,,,,,,,,,true,f,keypress(f),0.47,0.47,false,201185.60000002384,201183.89999997616,200262.159,200265.10000002384,200278.825,201197.075,,,
choice,canvas.Screen,0_5_14_2,2022-07-15T22:02:35.176Z,,,,0.53,,12,2002.841999999975,timeout,,,0.53,,0.47,,,6,,,,,,,66,,,,,0.47,false,203186.5,203183.251,201180.409,201186.89999997616,201197.075,203199.917,,166,
timeout,canvas.Screen,0_5_14_3,2022-07-15T22:02:35.181Z,,,,,,12,NaN,skipped,,,0.53,,,,,,,,,,,,,,,,,0.47,false,203191.5,203183.251,,203191.19999992847,,203199.917,,,
ITI,canvas.Screen,0_5_14_4,2022-07-15T22:02:35.681Z,,,,,,12,506.4750000000058,timeout,,,0.53,,,,,,,,,,,,,,,,,0.47,false,203692,203689.726,203183.251,203191.79999995232,203199.917,203706.392,,,
trial,flow.Sequence,0_5_14,2022-07-15T22:02:35.682Z,,,,,,12,3912.665000000008,completion,,,0.53,,,,,,,,,,,,,,,,,0.47,false,203692.79999995232,203689.726,199727.063,199729.89999997616,199777.061,203706.392,,,
fixation,canvas.Screen,0_5_15_0,2022-07-15T22:02:36.182Z,,,,,,9,501.6590000000142,timeout,,,0.485,,,,,,,,,,,,,,,,,0.53,false,204193,204191.385,203689.726,203693.5,203706.392,204208.051,,,
stimulus,canvas.Screen,0_5_15_1,2022-07-15T22:02:37.177Z,,,,,,9,975.8489999761514,response,,0.485,0.485,,,https://raw.githubusercontent.com/carero2/loss-perception/main/png/0.485blue1yellowb%3D1w%3D100v%3D66.png,https://raw.githubusercontent.com/carero2/loss-perception/main/png/0.53blue1yellowb%3D1w%3D100v%3D66.png,,,,,,,,,true,j,keypress(j),0.53,0.53,false,205187.60000002384,205183.89999997616,204191.385,204193.5,204208.051,205209.579,,,
choice,canvas.Screen,0_5_15_2,2022-07-15T22:02:39.186Z,,,,0.53,,9,2003.2149999999965,timeout,,,0.485,,0.485,,,6,,,,,,,72,,,,,0.53,false,207197,207196.128,205192.913,205197.79999995232,205209.579,207212.794,,172,
timeout,canvas.Screen,0_5_15_3,2022-07-15T22:02:39.187Z,,,,,,9,NaN,skipped,,,0.485,,,,,,,,,,,,,,,,,0.53,false,207198,207196.128,,207197.89999997616,,207212.794,,,
ITI,canvas.Screen,0_5_15_4,2022-07-15T22:02:39.693Z,,,,,,9,506.4180000000051,timeout,,,0.485,,,,,,,,,,,,,,,,,0.53,false,207703.29999995232,207702.546,207196.128,207198.10000002384,207212.794,207719.212,,,
trial,flow.Sequence,0_5_15,2022-07-15T22:02:39.693Z,,,,,,9,3996.1540000000095,completion,,,0.485,,,,,,,,,,,,,,,,,0.53,false,207703.5,207702.546,203689.726,203693.29999995232,203706.392,207719.212,,,
fixation,canvas.Screen,0_5_16_0,2022-07-15T22:02:40.195Z,,,,,,6,501.60999999998603,timeout,,,0.515,,,,,,,,,,,,,,,,,0.485,true,208206,208204.156,207702.546,207703.69999992847,207719.212,208220.822,,,
stimulus,canvas.Screen,0_5_16_1,2022-07-15T22:02:41.609Z,,,,,,6,1397.0779999761726,response,,0.485,0.515,,,https://raw.githubusercontent.com/carero2/loss-perception/main/png/0.485blue1yellowb%3D1w%3D100v%3D71.png,https://raw.githubusercontent.com/carero2/loss-perception/main/png/0.515blue1yellowb%3D1w%3D100v%3D71.png,,,,,,,,,true,j,keypress(j),0.515,0.485,true,209620,209617.89999997616,208204.156,208206.19999992847,208220.822,209622.453,,,
choice,canvas.Screen,0_5_16_2,2022-07-15T22:02:43.601Z,,,,0.515,,6,2004.4139999999898,timeout,,,0.515,,0.485,,,3,,,,,,,75,,,,,0.485,true,211611.60000002384,211610.201,209605.787,209621.19999992847,209622.453,211626.867,,175,
timeout,canvas.Screen,0_5_16_3,2022-07-15T22:02:43.604Z,,,,,,6,NaN,skipped,,,0.515,,,,,,,,,,,,,,,,,0.485,true,211614.79999995232,211610.201,,211614.29999995232,,211626.867,,,
ITI,canvas.Screen,0_5_16_4,2022-07-15T22:02:44.107Z,,,,,,6,506.4670000000042,timeout,,,0.515,,,,,,,,,,,,,,,,,0.485,true,212117.60000002384,212116.668,211610.201,211615.10000002384,211626.867,212133.334,,,
trial,flow.Sequence,0_5_16,2022-07-15T22:02:44.107Z,,,,,,6,4397.456000000006,completion,,,0.515,,,,,,,,,,,,,,,,,0.485,true,212117.79999995232,212116.668,207702.546,207703.60000002384,207719.212,212133.334,,,
fixation,canvas.Screen,0_5_17_0,2022-07-15T22:02:44.609Z,,,,,,18,501.6110000000044,timeout,,,0.545,,,,,,,,,,,,,,,,,0.455,false,212619.79999995232,212618.279,212116.668,212117.79999995232,212133.334,212634.945,,,
stimulus,canvas.Screen,0_5_17_1,2022-07-15T22:02:45.578Z,,,,,,18,948.9549999761512,response,,0.545,0.545,,,https://raw.githubusercontent.com/carero2/loss-perception/main/png/0.545blue1yellowb%3D1w%3D100v%3D13.png,https://raw.githubusercontent.com/carero2/loss-perception/main/png/0.455blue1yellowb%3D1w%3D100v%3D13.png,,,,,,,,,true,f,keypress(f),0.455,0.455,false,213588.29999995232,213583.89999997616,212618.279,212620.29999995232,212634.945,213603.18,,,
choice,canvas.Screen,0_5_17_2,2022-07-15T22:02:47.581Z,,,,0.545,,18,2003.1169999999984,timeout,,,0.545,,0.455,,,9,,,,,,,84,,,,,0.455,false,215591.5,215589.631,213586.514,213598.89999997616,213603.18,215606.297,,184,
timeout,canvas.Screen,0_5_17_3,2022-07-15T22:02:47.584Z,,,,,,18,NaN,skipped,,,0.545,,,,,,,,,,,,,,,,,0.455,false,215594.60000002384,215589.631,,215594.19999992847,,215606.297,,,
ITI,canvas.Screen,0_5_17_4,2022-07-15T22:02:48.086Z,,,,,,18,506.41500000000815,timeout,,,0.545,,,,,,,,,,,,,,,,,0.455,false,216097.10000002384,216096.046,215589.631,215594.89999997616,215606.297,216112.712,,,
trial,flow.Sequence,0_5_17,2022-07-15T22:02:48.087Z,,,,,,18,3962.7119999999995,completion,,,0.545,,,,,,,,,,,,,,,,,0.455,false,216097.5,216096.046,212116.668,212117.79999995232,212133.334,216112.712,,,
fixation,canvas.Screen,0_5_18_0,2022-07-15T22:02:48.589Z,,,,,,6,501.61799999998766,timeout,,,0.515,,,,,,,,,,,,,,,,,0.485,false,216599.19999992847,216597.664,216096.046,216097.69999992847,216112.712,216614.33,,,
stimulus,canvas.Screen,0_5_18_1,2022-07-15T22:02:49.526Z,,,,,,6,918.569999976171,response,,0.515,0.515,,,https://raw.githubusercontent.com/carero2/loss-perception/main/png/0.515blue1yellowb%3D1w%3D100v%3D14.png,https://raw.githubusercontent.com/carero2/loss-perception/main/png/0.485blue1yellowb%3D1w%3D100v%3D14.png,,,,,,,,,true,f,keypress(f),0.485,0.485,false,217536.69999992847,217532.89999997616,216597.664,216599.5,216614.33,217549.295,,,
choice,canvas.Screen,0_5_18_2,2022-07-15T22:02:51.527Z,,,,0.515,,6,2002.951000000001,timeout,,,0.515,,0.485,,,3,,,,,,,87,,,,,0.485,false,219537.79999995232,219535.58,217532.629,217541.19999992847,217549.295,219552.246,,187,
timeout,canvas.Screen,0_5_18_3,2022-07-15T22:02:51.530Z,,,,,,6,NaN,skipped,,,0.515,,,,,,,,,,,,,,,,,0.485,false,219540.29999995232,219535.58,,219539.79999995232,,219552.246,,,
ITI,canvas.Screen,0_5_18_4,2022-07-15T22:02:52.034Z,,,,,,6,506.420999999973,timeout,,,0.515,,,,,,,,,,,,,,,,,0.485,false,220044.19999992847,220042.001,219535.58,219541.69999992847,219552.246,220058.667,,,
trial,flow.Sequence,0_5_18,2022-07-15T22:02:52.034Z,,,,,,6,3929.2889999999898,completion,,,0.515,,,,,,,,,,,,,,,,,0.485,false,220044.79999995232,220042.001,216096.046,216097.69999992847,216112.712,220058.667,,,
fixation,canvas.Screen,0_5_19_0,2022-07-15T22:02:52.535Z,,,,,,6,501.6570000000065,timeout,,,0.545,,,,,,,,,,,,,,,,,0.515,true,220545.39999997616,220543.658,220042.001,220045.29999995232,220058.667,220560.324,,,
stimulus,canvas.Screen,0_5_19_1,2022-07-15T22:02:53.703Z,,,,,,6,1150.575999976165,response,,0.515,0.545,,,https://raw.githubusercontent.com/carero2/loss-perception/main/png/0.515blue1yellowb%3D1w%3D100v%3D98.png,https://raw.githubusercontent.com/carero2/loss-perception/main/png/0.545blue1yellowb%3D1w%3D100v%3D98.png,,,,,,,,,true,j,keypress(j),0.545,0.515,true,221713.5,221710.89999997616,220543.658,220545.69999992847,220560.324,221745.236,,,
choice,canvas.Screen,0_5_19_2,2022-07-15T22:02:55.723Z,,,,0.545,,6,2003.703999999998,timeout,,,0.545,,0.515,,,9,,,,,,,96,,,,,0.515,true,223733.39999997616,223732.274,221728.57,221732.10000002384,221745.236,223748.94,,196,
timeout,canvas.Screen,0_5_19_3,2022-07-15T22:02:55.725Z,,,,,,6,NaN,skipped,,,0.545,,,,,,,,,,,,,,,,,0.515,true,223736.19999992847,223732.274,,223735.60000002384,,223748.94,,,
ITI,canvas.Screen,0_5_19_4,2022-07-15T22:02:56.229Z,,,,,,6,506.4679999999935,timeout,,,0.545,,,,,,,,,,,,,,,,,0.515,true,224239.79999995232,224238.742,223732.274,223736.39999997616,223748.94,224255.408,,,
trial,flow.Sequence,0_5_19,2022-07-15T22:02:56.229Z,,,,,,6,4180.075000000012,completion,,,0.545,,,,,,,,,,,,,,,,,0.515,true,224240,224238.742,220042.001,220045.19999992847,220058.667,224255.408,,,
fixation,canvas.Screen,0_5_20_0,2022-07-15T22:02:56.731Z,,,,,,6,501.60700000001816,timeout,,,0.485,,,,,,,,,,,,,,,,,0.455,false,224741.79999995232,224740.349,224238.742,224240,224255.408,224757.015,,,
stimulus,canvas.Screen,0_5_20_1,2022-07-15T22:02:57.814Z,,,,,,6,1062.8849999761442,response,,0.485,0.485,,,https://raw.githubusercontent.com/carero2/loss-perception/main/png/0.485blue1yellowb%3D1w%3D100v%3D40.png,https://raw.githubusercontent.com/carero2/loss-perception/main/png/0.455blue1yellowb%3D1w%3D100v%3D40.png,,,,,,,,,true,f,keypress(f),0.455,0.455,false,225824.29999995232,225819.89999997616,224740.349,224742,224757.015,225875.32,,,
choice,canvas.Screen,0_5_20_2,2022-07-15T22:02:59.853Z,,,,0.485,,6,2003.5380000000005,timeout,,,0.485,,0.455,,,-3,,,,,,,93,,,,,0.455,false,227863.60000002384,227862.192,225825.322,225828.29999995232,225875.32,227878.858,,193,
timeout,canvas.Screen,0_5_20_3,2022-07-15T22:02:59.854Z,,,,,,6,NaN,skipped,,,0.485,,,,,,,,,,,,,,,,,0.455,false,227864.69999992847,227862.192,,227864.60000002384,,227878.858,,,
ITI,canvas.Screen,0_5_20_4,2022-07-15T22:03:00.360Z,,,,,,6,506.42499999998836,timeout,,,0.485,,,,,,,,,,,,,,,,,0.455,false,228370.39999997616,228368.617,227862.192,227864.79999995232,227878.858,228385.283,,,
trial,flow.Sequence,0_5_20,2022-07-15T22:03:00.360Z,,,,,,6,4113.209000000003,completion,,,0.485,,,,,,,,,,,,,,,,,0.455,false,228371,228368.617,224238.742,224240,224255.408,228385.283,,,
fixation,canvas.Screen,0_5_21_0,2022-07-15T22:03:00.861Z,,,,,,12,501.6600000000035,timeout,,,0.53,,,,,,,,,,,,,,,,,0.47,false,228871.79999995232,228870.277,228368.617,228371.39999997616,228385.283,228886.943,,,
stimulus,canvas.Screen,0_5_21_1,2022-07-15T22:03:01.936Z,,,,,,12,1055.9569999761588,response,,0.53,0.53,,,https://raw.githubusercontent.com/carero2/loss-perception/main/png/0.53blue1yellowb%3D1w%3D100v%3D79.png,https://raw.githubusercontent.com/carero2/loss-perception/main/png/0.47blue1yellowb%3D1w%3D100v%3D79.png,,,,,,,,,true,f,keypress(f),0.47,0.47,false,229946.5,229942.89999997616,228870.277,228872,228886.943,229971.801,,,
choice,canvas.Screen,0_5_21_2,2022-07-15T22:03:03.949Z,,,,0.53,,12,2003.4989999999816,timeout,,,0.53,,0.47,,,6,,,,,,,99,,,,,0.47,false,231959.79999995232,231958.634,229955.135,229962.79999995232,229971.801,231975.3,,199,
timeout,canvas.Screen,0_5_21_3,2022-07-15T22:03:03.952Z,,,,,,12,NaN,skipped,,,0.53,,,,,,,,,,,,,,,,,0.47,false,231962.10000002384,231958.634,,231961.89999997616,,231975.3,,,
ITI,canvas.Screen,0_5_21_4,2022-07-15T22:03:04.456Z,,,,,,12,506.41300000000047,timeout,,,0.53,,,,,,,,,,,,,,,,,0.47,false,232466.69999992847,232465.047,231958.634,231962.29999995232,231975.3,232481.713,,,
trial,flow.Sequence,0_5_21,2022-07-15T22:03:04.457Z,,,,,,12,4079.7639999999956,completion,,,0.53,,,,,,,,,,,,,,,,,0.47,false,232467.29999995232,232465.047,228368.617,228371.29999995232,228385.283,232481.713,,,
fixation,canvas.Screen,0_5_22_0,2022-07-15T22:03:04.958Z,,,,,,18,501.6570000000065,timeout,,,0.545,,,,,,,,,,,,,,,,,0.455,true,232968.60000002384,232966.704,232465.047,232467.60000002384,232481.713,232983.37,,,
stimulus,canvas.Screen,0_5_22_1,2022-07-15T22:03:05.782Z,,,,,,18,805.5299999761628,response,,0.455,0.545,,,https://raw.githubusercontent.com/carero2/loss-perception/main/png/0.455blue1yellowb%3D1w%3D100v%3D57.png,https://raw.githubusercontent.com/carero2/loss-perception/main/png/0.545blue1yellowb%3D1w%3D100v%3D57.png,,,,,,,,,true,j,keypress(j),0.545,0.455,true,233793,233788.89999997616,232966.704,232968.89999997616,232983.37,233801.629,,,
choice,canvas.Screen,0_5_22_2,2022-07-15T22:03:07.780Z,,,,0.545,,18,2002.56700000001,timeout,,,0.545,,0.455,,,9,,,,,,,108,,,,,0.455,true,235791,235787.53,233784.963,233800.60000002384,233801.629,235804.196,,208,
timeout,canvas.Screen,0_5_22_3,2022-07-15T22:03:07.786Z,,,,,,18,NaN,skipped,,,0.545,,,,,,,,,,,,,,,,,0.455,true,235796.29999995232,235787.53,,235795.60000002384,,235804.196,,,
ITI,canvas.Screen,0_5_22_4,2022-07-15T22:03:08.285Z,,,,,,18,506.48399999999674,timeout,,,0.545,,,,,,,,,,,,,,,,,0.455,true,236295.79999995232,236294.014,235787.53,235796.79999995232,235804.196,236310.68,,,
trial,flow.Sequence,0_5_22,2022-07-15T22:03:08.286Z,,,,,,18,3812.3010000000068,completion,,,0.545,,,,,,,,,,,,,,,,,0.455,true,236296.29999995232,236294.014,232465.047,232467.60000002384,232481.713,236310.68,,,
fixation,canvas.Screen,0_5_23_0,2022-07-15T22:03:08.788Z,,,,,,9,501.59600000001956,timeout,,,0.485,,,,,,,,,,,,,,,,,0.53,true,236798.19999992847,236795.61,236294.014,236296.69999992847,236310.68,236812.276,,,
stimulus,canvas.Screen,0_5_23_1,2022-07-15T22:03:09.712Z,,,,,,9,906.6239999761456,response,,0.53,0.485,,,https://raw.githubusercontent.com/carero2/loss-perception/main/png/0.53blue1yellowb%3D1w%3D100v%3D87.png,https://raw.githubusercontent.com/carero2/loss-perception/main/png/0.485blue1yellowb%3D1w%3D100v%3D87.png,,,,,,,,,true,f,keypress(f),0.485,0.53,true,237723.10000002384,237718.89999997616,236795.61,236798.69999992847,236812.276,237747.15,,,
choice,canvas.Screen,0_5_23_2,2022-07-15T22:03:11.724Z,,,,0.53,,9,2002.9459999999963,timeout,,,0.485,,0.485,,,6,,,,,,,114,,,,,0.53,true,239734.79999995232,239733.43,237730.484,237731,237747.15,239750.096,,214,
timeout,canvas.Screen,0_5_23_3,2022-07-15T22:03:11.728Z,,,,,,9,NaN,skipped,,,0.485,,,,,,,,,,,,,,,,,0.53,true,239738.79999995232,239733.43,,239738.29999995232,,239750.096,,,
ITI,canvas.Screen,0_5_23_4,2022-07-15T22:03:12.231Z,,,,,,9,506.4780000000028,timeout,,,0.485,,,,,,,,,,,,,,,,,0.53,true,240241.39999997616,240239.908,239733.43,239739,239750.096,240256.574,,,
trial,flow.Sequence,0_5_23,2022-07-15T22:03:12.232Z,,,,,,9,3929.228000000003,completion,,,0.485,,,,,,,,,,,,,,,,,0.53,true,240242.19999992847,240239.908,236294.014,236296.60000002384,236310.68,240256.574,,,
pratice,flow.Loop,0_5,2022-07-15T22:03:12.232Z,,,,,,,98319.28099999999,completion,,,,,,,,,,,,,,,,,,,,,,240242.69999992847,240239.908,141903.961,141914.10000002384,141920.627,240256.574,,,
show amount,html.Screen,0_6,2022-07-15T22:03:27.208Z,,,,,,,14958.325999976165,response,,,,,,,,,,,,,,,,,Continue,click #Continue,,,,255218.79999995232,255214.89999997616,240239.908,240245.79999995232,240256.574,255222.098,,,
first block,canvas.Screen,0_7,2022-07-15T22:04:31.163Z,,,,,,,63946.80199997616,response,,,,,,,,,,,,,,,,,space,keypress(Space),,,,319173.1999999285,319168.89999997616,255205.432,255218.89999997616,255222.098,319186.861,,,
fixation,canvas.Screen,0_8_0_0,2022-07-15T22:04:31.669Z,,,,,,4,640.3640000000014,timeout,,,0.49,,,,,,,,,,,,,,,,,0.47,false,319679.5,319677.231,319170.195,319173.7999999523,319186.861,319827.225,,,
stimulus,canvas.Screen,0_8_0_1,2022-07-15T22:04:37.632Z,,,,,,4,5809.674999976181,response,,0.49,0.49,,,https://raw.githubusercontent.com/carero2/loss-perception/main/png/0.49blue1yellowb%3D1w%3D100v%3D56.png,https://raw.githubusercontent.com/carero2/loss-perception/main/png/0.47blue1yellowb%3D1w%3D100v%3D56.png,,,,,,,,,true,f,keypress(f),0.47,0.47,false,325642.5,325636.89999997616,319677.231,319840.89999997616,319827.225,325712.429,,,
choice,canvas.Screen,0_8_0_2,2022-07-15T22:04:38.689Z,,,,0.49,,4,1002.3420000000042,timeout,,,0.49,,0.47,,,-2,-2,,,,,,,,,,,0.47,false,326699.5,326698.105,325695.763,325705.10000002384,325712.429,326714.771,98,,
ITI,canvas.Screen,0_8_0_3,2022-07-15T22:04:39.193Z,,,2552,,,4,503.1259999999893,timeout,,,0.49,,,,,,,,,,,,,,,,,0.47,false,327203.6999999285,327201.231,326698.105,326699.7999999523,326714.771,327217.897,,,
trial,flow.Sequence,0_8_0,2022-07-15T22:04:39.194Z,,,,,,4,8014.370000000054,completion,,,0.49,,,,,,,,,,,,,,,,,0.47,false,327204.60000002384,327201.231,319170.195,319173.60000002384,319186.861,327217.897,,,
fixation,canvas.Screen,0_8_1_0,2022-07-15T22:04:39.694Z,,,,,,2,634.9259999999776,timeout,,,0.505,,,,,,,,,,,,,,,,,0.495,false,327704.5,327702.829,327201.231,327205.10000002384,327217.897,327852.823,,,
stimulus,canvas.Screen,0_8_1_1,2022-07-15T22:04:42.026Z,,,,,,2,2180.0769999761833,response,,0.505,0.505,,,https://raw.githubusercontent.com/carero2/loss-perception/main/png/0.505blue1yellowb%3D1w%3D100v%3D75.png,https://raw.githubusercontent.com/carero2/loss-perception/main/png/0.495blue1yellowb%3D1w%3D100v%3D75.png,,,,,,,,,true,f,keypress(f),0.495,0.495,false,330036.1999999285,330032.89999997616,327702.829,327874.7999999523,327852.823,330088.287,,,
choice,canvas.Screen,0_8_1_2,2022-07-15T22:04:43.071Z,,,,0.505,,2,1007.1020000000135,timeout,,,0.505,,0.495,,,1,-1,,,,,,,,,,,0.495,false,331081.1999999285,331078.723,330071.621,330076,330088.287,331095.389,99,,
ITI,canvas.Screen,0_8_1_3,2022-07-15T22:04:43.573Z,,,2981,,,2,503.17299999995157,timeout,,,0.505,,,,,,,,,,,,,,,,,0.495,false,331583.39999997616,331581.896,331078.723,331081.7999999523,331095.389,331598.562,,,
trial,flow.Sequence,0_8_1,2022-07-15T22:04:43.573Z,,,,,,2,4363.999000000011,completion,,,0.505,,,,,,,,,,,,,,,,,0.495,false,331583.60000002384,331581.896,327201.231,327205,327217.897,331598.562,,,
fixation,canvas.Screen,0_8_2_0,2022-07-15T22:04:44.074Z,,,,,,4,618.3400000000256,timeout,,,0.53,,,,,,,,,,,,,,,,,0.51,false,332084.60000002384,332083.574,331581.896,331583.6999999285,331598.562,332216.902,,,
stimulus,canvas.Screen,0_8_2_1,2022-07-15T22:04:46.141Z,,,,,,4,1930.9979999761563,response,,0.53,0.53,,,https://raw.githubusercontent.com/carero2/loss-perception/main/png/0.53blue1yellowb%3D1w%3D100v%3D94.png,https://raw.githubusercontent.com/carero2/loss-perception/main/png/0.51blue1yellowb%3D1w%3D100v%3D94.png,,,,,,,,,true,f,keypress(f),0.51,0.51,false,334151.39999997616,334147.89999997616,332083.574,332224.39999997616,332216.902,334202.195,,,
choice,canvas.Screen,0_8_2_2,2022-07-15T22:04:47.184Z,,,,0.53,,4,1006.289999999979,timeout,,,0.53,,0.51,,,6,5,,,,,,,,,,,0.51,false,335194.5,335191.819,334185.529,334192.1999999285,334202.195,335208.485,105,,
ITI,canvas.Screen,0_8_2_3,2022-07-15T22:04:47.688Z,,,2853,,,4,503.22299999999814,timeout,,,0.53,,,,,,,,,,,,,,,,,0.51,false,335698.1999999285,335695.042,335191.819,335195.2999999523,335208.485,335711.708,,,
trial,flow.Sequence,0_8_2,2022-07-15T22:04:47.689Z,,,,,,4,4096.48000000004,completion,,,0.53,,,,,,,,,,,,,,,,,0.51,false,335699.10000002384,335695.042,331581.896,331583.6999999285,331598.562,335711.708,,,
fixation,canvas.Screen,0_8_3_0,2022-07-15T22:04:48.187Z,,,,,,2,668.3250000000116,timeout,,,0.495,,,,,,,,,,,,,,,,,0.485,false,336197.6999999285,336196.707,335695.042,335699.7999999523,335711.708,336380.033,,,
stimulus,canvas.Screen,0_8_3_1,2022-07-15T22:04:50.381Z,,,,,,2,2007.8669999761623,response,,0.495,0.495,,,https://raw.githubusercontent.com/carero2/loss-perception/main/png/0.495blue1yellowb%3D1w%3D100v%3D7.png,https://raw.githubusercontent.com/carero2/loss-perception/main/png/0.485blue1yellowb%3D1w%3D100v%3D7.png,,,,,,,,,true,j,keypress(j),0.485,0.485,false,338391.7999999523,338387.89999997616,336196.707,336388,336380.033,338448.776,,,
choice,canvas.Screen,0_8_3_2,2022-07-15T22:04:51.431Z,,,,0.485,,2,1006.61599999998,timeout,,,0.495,,0.495,,,-3,2,,,,,,,,,,,0.485,false,339441.39999997616,339438.726,338432.11,338445.89999997616,338448.776,339455.392,102,,
ITI,canvas.Screen,0_8_3_3,2022-07-15T22:04:51.933Z,,,2236,,,2,503.23100000002887,timeout,,,0.495,,,,,,,,,,,,,,,,,0.485,false,339943.89999997616,339941.957,339438.726,339442,339455.392,339958.623,,,
trial,flow.Sequence,0_8_3,2022-07-15T22:04:51.935Z,,,,,,2,4230.249000000011,completion,,,0.495,,,,,,,,,,,,,,,,,0.485,false,339945.1999999285,339941.957,335695.042,335699.60000002384,335711.708,339958.623,,,
fixation,canvas.Screen,0_8_4_0,2022-07-15T22:04:52.435Z,,,,,,4,718.3150000000023,timeout,,,0.51,,,,,,,,,,,,,,,,,0.49,true,340445.89999997616,340443.614,339941.957,339945.6999999285,339958.623,340676.938,,,
stimulus,canvas.Screen,0_8_4_1,2022-07-15T22:04:54.776Z,,,,,,4,2105.9619999761344,response,,0.49,0.51,,,https://raw.githubusercontent.com/carero2/loss-perception/main/png/0.49blue1yellowb%3D1w%3D100v%3D11.png,https://raw.githubusercontent.com/carero2/loss-perception/main/png/0.51blue1yellowb%3D1w%3D100v%3D11.png,,,,,,,,,true,j,keypress(j),0.51,0.49,true,342786.6999999285,342782.89999997616,340443.614,340684.7999999523,340676.938,342812.511,,,
choice,canvas.Screen,0_8_4_2,2022-07-15T22:04:55.794Z,,,,0.51,,4,1006.8869999999879,timeout,,,0.51,,0.49,,,2,4,,,,,,,,,,,0.49,true,343804.7999999523,343802.732,342795.845,342808.60000002384,342812.511,343819.398,104,,
ITI,canvas.Screen,0_8_4_3,2022-07-15T22:04:56.296Z,,,2108,,,4,503.17700000002515,timeout,,,0.51,,,,,,,,,,,,,,,,,0.49,true,344306.60000002384,344305.909,343802.732,343805.1999999285,343819.398,344322.575,,,
trial,flow.Sequence,0_8_4,2022-07-15T22:04:56.296Z,,,,,,4,4347.285999999964,completion,,,0.51,,,,,,,,,,,,,,,,,0.49,true,344307,344305.909,339941.957,339945.60000002384,339958.623,344322.575,,,
fixation,canvas.Screen,0_8_5_0,2022-07-15T22:04:56.799Z,,,,,,2,651.5380000000005,timeout,,,0.515,,,,,,,,,,,,,,,,,0.505,true,344809.60000002384,344807.453,344305.909,344307.1999999285,344322.575,344974.113,,,
stimulus,canvas.Screen,0_8_5_1,2022-07-15T22:04:59.144Z,,,,,,2,2176.786999976146,response,,0.505,0.515,,,https://raw.githubusercontent.com/carero2/loss-perception/main/png/0.505blue1yellowb%3D1w%3D100v%3D46.png,https://raw.githubusercontent.com/carero2/loss-perception/main/png/0.515blue1yellowb%3D1w%3D100v%3D46.png,,,,,,,,,true,j,keypress(j),0.515,0.505,true,347154.60000002384,347150.89999997616,344807.453,344992.5,344974.113,347209.633,,,
choice,canvas.Screen,0_8_5_2,2022-07-15T22:05:00.192Z,,,,0.515,,2,1007.1520000000019,timeout,,,0.515,,0.505,,,3,7,,,,,,,,,,,0.505,true,348202.5,348200.119,347192.967,347202.39999997616,347209.633,348216.785,107,,
ITI,canvas.Screen,0_8_5_3,2022-07-15T22:05:00.694Z,,,2174,,,2,503.23300000000745,timeout,,,0.515,,,,,,,,,,,,,,,,,0.505,true,348704.2999999523,348703.352,348200.119,348202.89999997616,348216.785,348720.018,,,
trial,flow.Sequence,0_8_5,2022-07-15T22:05:00.694Z,,,,,,2,4380.777000000002,completion,,,0.515,,,,,,,,,,,,,,,,,0.505,true,348704.60000002384,348703.352,344305.909,344307.10000002384,344322.575,348720.018,,,
fixation,canvas.Screen,0_8_6_0,2022-07-15T22:05:01.195Z,,,,,,6,684.8710000000428,timeout,,,0.485,,,,,,,,,,,,,,,,,0.455,true,349206.10000002384,349204.897,348703.352,348704.6999999285,348720.018,349404.889,,,
stimulus,canvas.Screen,0_8_6_1,2022-07-15T22:05:03.312Z,,,,,,6,1914.0109999761335,response,,0.455,0.485,,,https://raw.githubusercontent.com/carero2/loss-perception/main/png/0.455blue1yellowb%3D1w%3D100v%3D16.png,https://raw.githubusercontent.com/carero2/loss-perception/main/png/0.485blue1yellowb%3D1w%3D100v%3D16.png,,,,,,,,,true,j,keypress(j),0.485,0.455,true,351323,351318.89999997616,349204.897,349428.2999999523,349404.889,351357.142,,,
choice,canvas.Screen,0_8_6_2,2022-07-15T22:05:04.339Z,,,,0.485,,6,1006.2330000000075,timeout,,,0.485,,0.455,,,-3,4,,,,,,,,,,,0.455,true,352349.1999999285,352346.709,351340.476,351352.6999999285,351357.142,352363.375,104,,
ITI,canvas.Screen,0_8_6_3,2022-07-15T22:05:04.841Z,,,2085,,,6,503.1790000000037,timeout,,,0.485,,,,,,,,,,,,,,,,,0.455,true,352851.7999999523,352849.888,352346.709,352349.6999999285,352363.375,352866.554,,,
trial,flow.Sequence,0_8_6,2022-07-15T22:05:04.842Z,,,,,,6,4129.869999999995,completion,,,0.485,,,,,,,,,,,,,,,,,0.455,true,352852.39999997616,352849.888,348703.352,348704.6999999285,348720.018,352866.554,,,
fixation,canvas.Screen,0_8_7_0,2022-07-15T22:05:05.343Z,,,,,,6,618.2669999999925,timeout,,,0.515,,,,,,,,,,,,,,,,,0.485,false,353354,353351.493,352849.888,352854,352866.554,353484.821,,,
stimulus,canvas.Screen,0_8_7_1,2022-07-15T22:05:07.104Z,,,,,,6,1626.0789999761619,response,,0.515,0.515,,,https://raw.githubusercontent.com/carero2/loss-perception/main/png/0.515blue1yellowb%3D1w%3D100v%3D16.png,https://raw.githubusercontent.com/carero2/loss-perception/main/png/0.485blue1yellowb%3D1w%3D100v%3D16.png,,,,,,,,,true,f,keypress(f),0.485,0.485,false,355114.1999999285,355110.89999997616,353351.493,353497.2999999523,353484.821,355170.246,,,
choice,canvas.Screen,0_8_7_2,2022-07-15T22:05:08.149Z,,,,0.515,,6,1005.3180000000284,timeout,,,0.515,,0.485,,,3,7,,,,,,,,,,,0.485,false,356160,356158.898,355153.58,355167.10000002384,355170.246,356175.564,107,,
ITI,canvas.Screen,0_8_7_3,2022-07-15T22:05:08.653Z,,,2704,,,6,503.16499999997905,timeout,,,0.515,,,,,,,,,,,,,,,,,0.485,false,356663.1999999285,356662.063,356158.898,356160.1999999285,356175.564,356678.729,,,
trial,flow.Sequence,0_8_7,2022-07-15T22:05:08.653Z,,,,,,6,3795.50900000002,completion,,,0.515,,,,,,,,,,,,,,,,,0.485,false,356663.89999997616,356662.063,352849.888,352853.7999999523,352866.554,356678.729,,,
fixation,canvas.Screen,0_8_8_0,2022-07-15T22:05:09.154Z,,,,,,6,618.2719999999972,timeout,,,0.545,,,,,,,,,,,,,,,,,0.515,false,357164.5,357163.673,356662.063,356664.10000002384,356678.729,357297.001,,,
stimulus,canvas.Screen,0_8_8_1,2022-07-15T22:05:10.856Z,,,,,,6,1565.8989999761689,response,,0.545,0.545,,,https://raw.githubusercontent.com/carero2/loss-perception/main/png/0.545blue1yellowb%3D1w%3D100v%3D76.png,https://raw.githubusercontent.com/carero2/loss-perception/main/png/0.515blue1yellowb%3D1w%3D100v%3D76.png,,,,,,,,,true,f,keypress(f),0.515,0.515,false,358867,358862.89999997616,357163.673,357304.89999997616,357297.001,358932.329,,,
choice,canvas.Screen,0_8_8_2,2022-07-15T22:05:11.912Z,,,,0.545,,6,1005.2669999999925,timeout,,,0.545,,0.515,,,9,16,,,,,,,,,,,0.515,false,359922.60000002384,359920.93,358915.663,358931.5,358932.329,359937.596,116,,
ITI,canvas.Screen,0_8_8_3,2022-07-15T22:05:12.415Z,,,2327,,,6,503.17699999996694,timeout,,,0.545,,,,,,,,,,,,,,,,,0.515,false,360425.6999999285,360424.107,359920.93,359923.10000002384,359937.596,360440.773,,,
trial,flow.Sequence,0_8_8,2022-07-15T22:05:12.415Z,,,,,,6,3745.378000000026,completion,,,0.545,,,,,,,,,,,,,,,,,0.515,false,360425.89999997616,360424.107,356662.063,356664,356678.729,360440.773,,,
fixation,canvas.Screen,0_8_9_0,2022-07-15T22:05:12.917Z,,,,,,6,634.9280000000144,timeout,,,0.515,,,,,,,,,,,,,,,,,0.485,true,360927.2999999523,360925.707,360424.107,360426.10000002384,360440.773,361075.701,,,
stimulus,canvas.Screen,0_8_9_1,2022-07-15T22:05:14.291Z,,,,,,6,1224.1989999761572,response,,0.485,0.515,,,https://raw.githubusercontent.com/carero2/loss-perception/main/png/0.485blue1yellowb%3D1w%3D100v%3D66.png,https://raw.githubusercontent.com/carero2/loss-perception/main/png/0.515blue1yellowb%3D1w%3D100v%3D66.png,,,,,,,,,true,j,keypress(j),0.515,0.485,true,362301.7999999523,362299.89999997616,360925.707,361083.60000002384,361075.701,362327.812,,,
choice,canvas.Screen,0_8_9_2,2022-07-15T22:05:15.307Z,,,,0.515,,6,1003.9060000000172,timeout,,,0.515,,0.485,,,3,19,,,,,,,,,,,0.485,true,363317.2999999523,363315.052,362311.146,362318.10000002384,362327.812,363331.718,119,,
ITI,canvas.Screen,0_8_9_3,2022-07-15T22:05:15.810Z,,,2440,,,6,503.2270000000135,timeout,,,0.515,,,,,,,,,,,,,,,,,0.485,true,363820.6999999285,363818.279,363315.052,363317.6999999285,363331.718,363834.945,,,
trial,flow.Sequence,0_8_9,2022-07-15T22:05:15.811Z,,,,,,6,3377.505999999994,completion,,,0.515,,,,,,,,,,,,,,,,,0.485,true,363821.89999997616,363818.279,360424.107,360426.10000002384,360440.773,363834.945,,,
fixation,canvas.Screen,0_8_10_0,2022-07-15T22:05:16.310Z,,,,,,6,618.2629999999772,timeout,,,0.545,,,,,,,,,,,,,,,,,0.515,true,364320.60000002384,364319.88,363818.279,363822.5,363834.945,364453.208,,,
stimulus,canvas.Screen,0_8_10_1,2022-07-15T22:05:18.247Z,,,,,,6,1797.691999976174,response,,0.515,0.545,,,https://raw.githubusercontent.com/carero2/loss-perception/main/png/0.515blue1yellowb%3D1w%3D100v%3D13.png,https://raw.githubusercontent.com/carero2/loss-perception/main/png/0.545blue1yellowb%3D1w%3D100v%3D13.png,,,,,,,,,true,j,keypress(j),0.545,0.515,true,366257.5,366250.89999997616,364319.88,364460.10000002384,364453.208,366321.908,,,
choice,canvas.Screen,0_8_10_2,2022-07-15T22:05:19.302Z,,,,0.545,,6,1005.9729999999981,timeout,,,0.545,,0.515,,,9,28,,,,,,,,,,,0.515,true,367312.60000002384,367311.215,366305.242,366313.1999999285,366321.908,367327.881,128,,
ITI,canvas.Screen,0_8_10_3,2022-07-15T22:05:19.806Z,,,2670,,,6,503.1720000000205,timeout,,,0.545,,,,,,,,,,,,,,,,,0.515,true,367817.10000002384,367814.387,367311.215,367312.6999999285,367327.881,367831.053,,,
trial,flow.Sequence,0_8_10,2022-07-15T22:05:19.807Z,,,,,,6,3979.441999999981,completion,,,0.545,,,,,,,,,,,,,,,,,0.515,true,367817.89999997616,367814.387,363818.279,363822.39999997616,363834.945,367831.053,,,
fixation,canvas.Screen,0_8_11_0,2022-07-15T22:05:20.307Z,,,,,,6,634.935999999987,timeout,,,0.485,,,,,,,,,,,,,,,,,0.455,false,368317.5,368315.995,367814.387,367818.1999999285,367831.053,368465.989,,,
stimulus,canvas.Screen,0_8_11_1,2022-07-15T22:05:22.023Z,,,,,,6,1562.9109999761567,response,,0.485,0.485,,,https://raw.githubusercontent.com/carero2/loss-perception/main/png/0.485blue1yellowb%3D1w%3D100v%3D71.png,https://raw.githubusercontent.com/carero2/loss-perception/main/png/0.455blue1yellowb%3D1w%3D100v%3D71.png,,,,,,,,,true,f,keypress(f),0.455,0.455,false,370033.39999997616,370028.89999997616,368315.995,368473.1999999285,368465.989,370118.03,,,
choice,canvas.Screen,0_8_11_2,2022-07-15T22:05:23.098Z,,,,0.485,,6,1005.3129999999655,timeout,,,0.485,,0.455,,,-3,25,,,,,,,,,,,0.455,false,371108.6999999285,371106.677,370101.364,370109.1999999285,370118.03,371123.343,125,,
ITI,canvas.Screen,0_8_11_3,2022-07-15T22:05:23.601Z,,,2313,,,6,503.17499999998836,timeout,,,0.485,,,,,,,,,,,,,,,,,0.455,false,371612,371609.852,371106.677,371109,371123.343,371626.518,,,
trial,flow.Sequence,0_8_11,2022-07-15T22:05:23.603Z,,,,,,6,3778.798999999999,completion,,,0.485,,,,,,,,,,,,,,,,,0.455,false,371613.7999999523,371609.852,367814.387,367818.10000002384,367831.053,371626.518,,,
fixation,canvas.Screen,0_8_12_0,2022-07-15T22:05:24.103Z,,,,,,4,634.9860000000335,timeout,,,0.49,,,,,,,,,,,,,,,,,0.47,false,372113.60000002384,372111.51,371609.852,371614.5,371626.518,372261.504,,,
stimulus,canvas.Screen,0_8_12_1,2022-07-15T22:05:25.685Z,,,,,,4,1430.3959999761428,response,,0.49,0.49,,,https://raw.githubusercontent.com/carero2/loss-perception/main/png/0.49blue1yellowb%3D1w%3D100v%3D43.png,https://raw.githubusercontent.com/carero2/loss-perception/main/png/0.47blue1yellowb%3D1w%3D100v%3D43.png,,,,,,,,,true,f,keypress(f),0.47,0.47,false,373695.39999997616,373691.89999997616,372111.51,372269,372261.504,373730.231,,,
choice,canvas.Screen,0_8_12_2,2022-07-15T22:05:26.709Z,,,,0.49,,4,1004.61599999998,timeout,,,0.49,,0.47,,,-2,23,,,,,,,,,,,0.47,false,374719.7999999523,374718.181,373713.565,373726.10000002384,373730.231,374734.847,123,,
ITI,canvas.Screen,0_8_12_3,2022-07-15T22:05:27.212Z,,,2375,,,4,503.2170000000042,timeout,,,0.49,,,,,,,,,,,,,,,,,0.47,false,375222.39999997616,375221.398,374718.181,374719.89999997616,374734.847,375238.064,,,
trial,flow.Sequence,0_8_12,2022-07-15T22:05:27.212Z,,,,,,4,3594.8800000000047,completion,,,0.49,,,,,,,,,,,,,,,,,0.47,false,375222.5,375221.398,371609.852,371614.2999999523,371626.518,375238.064,,,
fixation,canvas.Screen,0_8_13_0,2022-07-15T22:05:27.715Z,,,,,,4,651.5899999999674,timeout,,,0.53,,,,,,,,,,,,,,,,,0.51,true,375725.1999999285,375722.994,375221.398,375222.6999999285,375238.064,375889.654,,,
stimulus,canvas.Screen,0_8_13_1,2022-07-15T22:05:29.482Z,,,,,,4,1599.2459999761777,response,,0.51,0.53,,,https://raw.githubusercontent.com/carero2/loss-perception/main/png/0.51blue1yellowb%3D1w%3D100v%3D55.png,https://raw.githubusercontent.com/carero2/loss-perception/main/png/0.53blue1yellowb%3D1w%3D100v%3D55.png,,,,,,,,,true,f,keypress(f),0.53,0.51,true,377492.7999999523,377488.89999997616,375722.994,375897.10000002384,375889.654,377525.094,,,
choice,canvas.Screen,0_8_13_2,2022-07-15T22:05:30.506Z,,,,0.51,,4,1005.26800000004,timeout,,,0.53,,0.53,,,2,25,,,,,,,,,,,0.51,true,378517.10000002384,378513.696,377508.428,377524.39999997616,377525.094,378530.362,125,,
ITI,canvas.Screen,0_8_13_3,2022-07-15T22:05:31.008Z,,,2307,,,4,503.179999999993,timeout,,,0.53,,,,,,,,,,,,,,,,,0.51,true,379018.5,379016.876,378513.696,378518,378530.362,379033.542,,,
trial,flow.Sequence,0_8_13,2022-07-15T22:05:31.008Z,,,,,,4,3778.8119999999763,completion,,,0.53,,,,,,,,,,,,,,,,,0.51,true,379019,379016.876,375221.398,375222.5,375238.064,379033.542,,,
fixation,canvas.Screen,0_8_14_0,2022-07-15T22:05:31.510Z,,,,,,4,634.920999999973,timeout,,,0.51,,,,,,,,,,,,,,,,,0.49,false,379520.60000002384,379518.469,379016.876,379019.5,379033.542,379668.463,,,
stimulus,canvas.Screen,0_8_14_1,2022-07-15T22:05:33.063Z,,,,,,4,1401.4369999761693,response,,0.51,0.51,,,https://raw.githubusercontent.com/carero2/loss-perception/main/png/0.51blue1yellowb%3D1w%3D100v%3D8.png,https://raw.githubusercontent.com/carero2/loss-perception/main/png/0.49blue1yellowb%3D1w%3D100v%3D8.png,,,,,,,,,true,f,keypress(f),0.49,0.49,false,381073.89999997616,381069.89999997616,379518.469,379676.6999999285,379668.463,381120.515,,,
choice,canvas.Screen,0_8_14_2,2022-07-15T22:05:34.099Z,,,,0.51,,4,1004.6130000000121,timeout,,,0.51,,0.49,,,2,27,,,,,,,,,,,0.49,false,382109.6999999285,382108.462,381103.849,381103.6999999285,381120.515,382125.128,127,,
ITI,canvas.Screen,0_8_14_3,2022-07-15T22:05:34.603Z,,,2085,,,4,503.2269999999553,timeout,,,0.51,,,,,,,,,,,,,,,,,0.49,false,382613.2999999523,382611.689,382108.462,382109.89999997616,382125.128,382628.355,,,
trial,flow.Sequence,0_8_14,2022-07-15T22:05:34.603Z,,,,,,4,3578.146999999997,completion,,,0.51,,,,,,,,,,,,,,,,,0.49,false,382614,382611.689,379016.876,379019.2999999523,379033.542,382628.355,,,
fixation,canvas.Screen,0_8_15_0,2022-07-15T22:05:35.104Z,,,,,,2,634.9839999999967,timeout,,,0.505,,,,,,,,,,,,,,,,,0.495,true,383115.10000002384,383113.345,382611.689,382614.2999999523,382628.355,383263.339,,,
stimulus,canvas.Screen,0_8_15_1,2022-07-15T22:05:37.149Z,,,,,,2,1892.56099997618,response,,0.495,0.505,,,https://raw.githubusercontent.com/carero2/loss-perception/main/png/0.495blue1yellowb%3D1w%3D100v%3D91.png,https://raw.githubusercontent.com/carero2/loss-perception/main/png/0.505blue1yellowb%3D1w%3D100v%3D91.png,,,,,,,,,true,j,keypress(j),0.505,0.495,true,385159.2999999523,385155.89999997616,383113.345,383280.2999999523,383263.339,385215.433,,,
choice,canvas.Screen,0_8_15_2,2022-07-15T22:05:38.195Z,,,,0.505,,2,1006.1790000000037,timeout,,,0.505,,0.495,,,1,28,,,,,,,,,,,0.495,true,386206.10000002384,386204.946,385198.767,385203.7999999523,385215.433,386221.612,128,,
ITI,canvas.Screen,0_8_15_3,2022-07-15T22:05:38.699Z,,,2713,,,2,503.1269999999786,timeout,,,0.505,,,,,,,,,,,,,,,,,0.495,true,386709.6999999285,386708.073,386204.946,386206.5,386221.612,386724.739,,,
trial,flow.Sequence,0_8_15,2022-07-15T22:05:38.699Z,,,,,,2,4079.7179999999935,completion,,,0.505,,,,,,,,,,,,,,,,,0.495,true,386709.7999999523,386708.073,382611.689,382614.1999999285,382628.355,386724.739,,,
fixation,canvas.Screen,0_8_16_0,2022-07-15T22:05:39.200Z,,,,,,2,634.9770000000135,timeout,,,0.515,,,,,,,,,,,,,,,,,0.505,true,387211,387209.722,386708.073,386709.89999997616,386724.739,387359.716,,,
stimulus,canvas.Screen,0_8_16_1,2022-07-15T22:05:41.120Z,,,,,,2,1766.1839999761432,response,,0.505,0.515,,,https://raw.githubusercontent.com/carero2/loss-perception/main/png/0.505blue1yellowb%3D1w%3D100v%3D44.png,https://raw.githubusercontent.com/carero2/loss-perception/main/png/0.515blue1yellowb%3D1w%3D100v%3D44.png,,,,,,,,,true,j,keypress(j),0.515,0.505,true,389130.6999999285,389125.89999997616,387209.722,387379,387359.716,389195.143,,,
choice,canvas.Screen,0_8_16_2,2022-07-15T22:05:42.176Z,,,,0.515,,2,1005.9070000000065,timeout,,,0.515,,0.505,,,3,31,,,,,,,,,,,0.505,true,390186.1999999285,390184.384,389178.477,389183.7999999523,389195.143,390201.05,131,,
ITI,canvas.Screen,0_8_16_3,2022-07-15T22:05:42.679Z,,,2699,,,2,503.17600000003586,timeout,,,0.515,,,,,,,,,,,,,,,,,0.505,true,390689.89999997616,390687.56,390184.384,390186.5,390201.05,390704.226,,,
trial,flow.Sequence,0_8_16,2022-07-15T22:05:42.680Z,,,,,,2,3962.8209999999963,completion,,,0.515,,,,,,,,,,,,,,,,,0.505,true,390690.7999999523,390687.56,386708.073,386709.7999999523,386724.739,390704.226,,,
fixation,canvas.Screen,0_8_17_0,2022-07-15T22:05:43.180Z,,,,,,2,618.2119999999995,timeout,,,0.495,,,,,,,,,,,,,,,,,0.485,false,391191.10000002384,391189.11,390687.56,390691.1999999285,390704.226,391322.438,,,
stimulus,canvas.Screen,0_8_17_1,2022-07-15T22:05:45.223Z,,,,,,2,1909.4619999761344,response,,0.495,0.495,,,https://raw.githubusercontent.com/carero2/loss-perception/main/png/0.495blue1yellowb%3D1w%3D100v%3D70.png,https://raw.githubusercontent.com/carero2/loss-perception/main/png/0.485blue1yellowb%3D1w%3D100v%3D70.png,,,,,,,,,true,j,keypress(j),0.485,0.485,false,393234,393231.89999997616,391189.11,391343.7999999523,391322.438,393257.854,,,
choice,canvas.Screen,0_8_17_2,2022-07-15T22:05:46.238Z,,,,0.485,,2,1006.1330000000307,timeout,,,0.495,,0.495,,,-3,28,,,,,,,,,,,0.485,false,394248.6999999285,394247.321,393241.188,393255.6999999285,393257.854,394263.987,128,,
ITI,canvas.Screen,0_8_17_3,2022-07-15T22:05:46.754Z,,,2474,,,2,503.1669999999576,timeout,,,0.495,,,,,,,,,,,,,,,,,0.485,false,394764.1999999285,394750.488,394247.321,394248.89999997616,394263.987,394767.154,,,
trial,flow.Sequence,0_8_17,2022-07-15T22:05:46.754Z,,,,,,2,4046.261999999988,completion,,,0.495,,,,,,,,,,,,,,,,,0.485,false,394764.5,394750.488,390687.56,390691.10000002384,390704.226,394767.154,,,
fixation,canvas.Screen,0_8_18_0,2022-07-15T22:05:47.242Z,,,,,,2,584.9930000000168,timeout,,,0.495,,,,,,,,,,,,,,,,,0.485,false,395253.10000002384,395252.151,394750.488,394764.6999999285,394767.154,395352.147,,,
stimulus,canvas.Screen,0_8_18_1,2022-07-15T22:05:48.527Z,,,,,,2,1183.752999976161,response,,0.495,0.495,,,https://raw.githubusercontent.com/carero2/loss-perception/main/png/0.495blue1yellowb%3D1w%3D100v%3D91.png,https://raw.githubusercontent.com/carero2/loss-perception/main/png/0.485blue1yellowb%3D1w%3D100v%3D91.png,,,,,,,,,true,f,keypress(f),0.485,0.485,false,396537.6999999285,396535.89999997616,395252.151,395362,395352.147,396570.665,,,
choice,canvas.Screen,0_8_18_2,2022-07-15T22:05:49.549Z,,,,0.495,,2,1003.8490000000456,timeout,,,0.495,,0.485,,,-1,27,,,,,,,,,,,0.485,false,397559.5,397557.848,396553.999,396555.2999999523,396570.665,397574.514,127,,
ITI,canvas.Screen,0_8_18_3,2022-07-15T22:05:50.052Z,,,2602,,,2,503.2249999999767,timeout,,,0.495,,,,,,,,,,,,,,,,,0.485,false,398062.7999999523,398061.073,397557.848,397560,397574.514,398077.739,,,
trial,flow.Sequence,0_8_18,2022-07-15T22:05:50.053Z,,,,,,2,3293.9189999999944,completion,,,0.495,,,,,,,,,,,,,,,,,0.485,false,398063.39999997616,398061.073,394750.488,394764.6999999285,394767.154,398077.739,,,
fixation,canvas.Screen,0_8_19_0,2022-07-15T22:05:50.554Z,,,,,,6,618.2629999999772,timeout,,,0.515,,,,,,,,,,,,,,,,,0.485,true,398564.2999999523,398562.674,398061.073,398063.89999997616,398077.739,398696.002,,,
stimulus,canvas.Screen,0_8_19_1,2022-07-15T22:05:52.195Z,,,,,,6,1498.8979999761796,response,,0.485,0.515,,,https://raw.githubusercontent.com/carero2/loss-perception/main/png/0.485blue1yellowb%3D1w%3D100v%3D53.png,https://raw.githubusercontent.com/carero2/loss-perception/main/png/0.515blue1yellowb%3D1w%3D100v%3D53.png,,,,,,,,,true,j,keypress(j),0.515,0.485,true,400205.5,400194.89999997616,398562.674,398703.39999997616,398696.002,400231.402,,,
choice,canvas.Screen,0_8_19_2,2022-07-15T22:05:53.213Z,,,,0.515,,6,1004.88400000002,timeout,,,0.515,,0.485,,,3,30,,,,,,,,,,,0.485,true,401223.39999997616,401219.62,400214.736,400229.5,400231.402,401236.286,130,,
ITI,canvas.Screen,0_8_19_3,2022-07-15T22:05:53.714Z,,,2392,,,6,503.16399999998976,timeout,,,0.515,,,,,,,,,,,,,,,,,0.485,true,401724.7999999523,401722.784,401219.62,401223.89999997616,401236.286,401739.45,,,
trial,flow.Sequence,0_8_19,2022-07-15T22:05:53.715Z,,,,,,6,3645.0449999999837,completion,,,0.515,,,,,,,,,,,,,,,,,0.485,true,401725.5,401722.784,398061.073,398063.6999999285,398077.739,401739.45,,,
fixation,canvas.Screen,0_8_20_0,2022-07-15T22:05:54.215Z,,,,,,4,618.2669999999925,timeout,,,0.51,,,,,,,,,,,,,,,,,0.49,true,402225.5,402224.389,401722.784,401725.89999997616,401739.45,402357.717,,,
stimulus,canvas.Screen,0_8_20_1,2022-07-15T22:05:55.419Z,,,,,,4,1068.182999976154,response,,0.49,0.51,,,https://raw.githubusercontent.com/carero2/loss-perception/main/png/0.49blue1yellowb%3D1w%3D100v%3D56.png,https://raw.githubusercontent.com/carero2/loss-perception/main/png/0.51blue1yellowb%3D1w%3D100v%3D56.png,,,,,,,,,true,j,keypress(j),0.51,0.49,true,403430,403425.89999997616,402224.389,402364.89999997616,402357.717,403476.391,,,
choice,canvas.Screen,0_8_20_2,2022-07-15T22:05:56.454Z,,,,0.51,,4,1003.5250000000233,timeout,,,0.51,,0.49,,,2,32,,,,,,,,,,,0.49,true,404465,404463.25,403459.725,403471.10000002384,403476.391,404479.916,132,,
ITI,canvas.Screen,0_8_20_3,2022-07-15T22:05:56.958Z,,,2550,,,4,503.23099999997066,timeout,,,0.51,,,,,,,,,,,,,,,,,0.49,true,404968.5,404966.481,404463.25,404465.5,404479.916,404983.147,,,
trial,flow.Sequence,0_8_20,2022-07-15T22:05:56.959Z,,,,,,4,3227.0310000000172,completion,,,0.51,,,,,,,,,,,,,,,,,0.49,true,404969.2999999523,404966.481,401722.784,401725.7999999523,401739.45,404983.147,,,
fixation,canvas.Screen,0_8_21_0,2022-07-15T22:05:57.459Z,,,,,,4,651.6070000000182,timeout,,,0.49,,,,,,,,,,,,,,,,,0.47,true,405469.6999999285,405468.094,404966.481,404969.6999999285,404983.147,405634.754,,,
stimulus,canvas.Screen,0_8_21_1,2022-07-15T22:05:58.917Z,,,,,,4,1289.1459999761428,response,,0.47,0.49,,,https://raw.githubusercontent.com/carero2/loss-perception/main/png/0.47blue1yellowb%3D1w%3D100v%3D55.png,https://raw.githubusercontent.com/carero2/loss-perception/main/png/0.49blue1yellowb%3D1w%3D100v%3D55.png,,,,,,,,,true,j,keypress(j),0.49,0.47,true,406927.5,406923.89999997616,405468.094,405646.5,405634.754,406970.245,,,
choice,canvas.Screen,0_8_21_2,2022-07-15T22:05:59.948Z,,,,0.49,,4,1004.2889999999898,timeout,,,0.49,,0.47,,,-2,30,,,,,,,,,,,0.47,true,407958.7999999523,407957.868,406953.579,406968.39999997616,406970.245,407974.534,130,,
ITI,canvas.Screen,0_8_21_3,2022-07-15T22:06:00.454Z,,,2400,,,4,503.13099999999395,timeout,,,0.49,,,,,,,,,,,,,,,,,0.47,true,408464.2999999523,408460.999,407957.868,407959,407974.534,408477.665,,,
trial,flow.Sequence,0_8_21,2022-07-15T22:06:00.455Z,,,,,,4,3477.8520000000135,completion,,,0.49,,,,,,,,,,,,,,,,,0.47,true,408465.2999999523,408460.999,404966.481,404969.6999999285,404983.147,408477.665,,,
fixation,canvas.Screen,0_8_22_0,2022-07-15T22:06:00.953Z,,,,,,6,634.9220000000205,timeout,,,0.545,,,,,,,,,,,,,,,,,0.515,true,408963.6999999285,408962.593,408460.999,408465.89999997616,408477.665,409112.587,,,
stimulus,canvas.Screen,0_8_22_1,2022-07-15T22:06:01.991Z,,,,,,6,884.3129999761586,response,,0.515,0.545,,,https://raw.githubusercontent.com/carero2/loss-perception/main/png/0.515blue1yellowb%3D1w%3D100v%3D70.png,https://raw.githubusercontent.com/carero2/loss-perception/main/png/0.545blue1yellowb%3D1w%3D100v%3D70.png,,,,,,,,,true,j,keypress(j),0.545,0.515,true,410001.7999999523,409996.89999997616,408962.593,409121.1999999285,409112.587,410081.335,,,
choice,canvas.Screen,0_8_22_2,2022-07-15T22:06:03.059Z,,,,0.545,,6,1003.0339999999851,timeout,,,0.545,,0.515,,,9,39,,,,,,,,,,,0.515,true,411069.2999999523,411067.703,410064.669,410069.5,410081.335,411084.369,139,,
ITI,canvas.Screen,0_8_22_3,2022-07-15T22:06:03.563Z,,,2283,,,6,503.2249999999767,timeout,,,0.545,,,,,,,,,,,,,,,,,0.515,true,411573.60000002384,411570.928,411067.703,411069.89999997616,411084.369,411587.594,,,
trial,flow.Sequence,0_8_22,2022-07-15T22:06:03.564Z,,,,,,6,3093.2630000000354,completion,,,0.545,,,,,,,,,,,,,,,,,0.515,true,411574.5,411570.928,408460.999,408465.6999999285,408477.665,411587.594,,,
fixation,canvas.Screen,0_8_23_0,2022-07-15T22:06:04.063Z,,,,,,2,651.6610000000219,timeout,,,0.505,,,,,,,,,,,,,,,,,0.495,true,412073.89999997616,412072.595,411570.928,411575.1999999285,411587.594,412239.255,,,
stimulus,canvas.Screen,0_8_23_1,2022-07-15T22:06:06.128Z,,,,,,2,1893.6449999761535,response,,0.495,0.505,,,https://raw.githubusercontent.com/carero2/loss-perception/main/png/0.495blue1yellowb%3D1w%3D100v%3D23.png,https://raw.githubusercontent.com/carero2/loss-perception/main/png/0.505blue1yellowb%3D1w%3D100v%3D23.png,,,,,,,,,true,j,keypress(j),0.505,0.495,true,414138.5,414132.89999997616,412072.595,412246.6999999285,412239.255,414224.621,,,
choice,canvas.Screen,0_8_23_2,2022-07-15T22:06:07.205Z,,,,0.505,,2,1006.3429999999935,timeout,,,0.505,,0.495,,,1,40,,,,,,,,,,,0.495,true,415215.60000002384,415214.298,414207.955,414213.89999997616,414224.621,415230.964,140,,
ITI,canvas.Screen,0_8_23_3,2022-07-15T22:06:07.708Z,,,2733,,,2,503.2260000000242,timeout,,,0.505,,,,,,,,,,,,,,,,,0.495,true,415718.1999999285,415717.524,415214.298,415215.6999999285,415230.964,415734.19,,,
trial,flow.Sequence,0_8_23,2022-07-15T22:06:07.708Z,,,,,,2,4129.929999999993,completion,,,0.505,,,,,,,,,,,,,,,,,0.495,true,415718.5,415717.524,411570.928,411575,411587.594,415734.19,,,
fixation,canvas.Screen,0_8_24_0,2022-07-15T22:06:08.210Z,,,,,,4,634.9309999999823,timeout,,,0.53,,,,,,,,,,,,,,,,,0.51,false,416220.6999999285,416219.127,415717.524,415718.5,415734.19,416369.121,,,
stimulus,canvas.Screen,0_8_24_1,2022-07-15T22:06:09.574Z,,,,,,4,1211.7789999761735,response,,0.53,0.53,,,https://raw.githubusercontent.com/carero2/loss-perception/main/png/0.53blue1yellowb%3D1w%3D100v%3D7.png,https://raw.githubusercontent.com/carero2/loss-perception/main/png/0.51blue1yellowb%3D1w%3D100v%3D7.png,,,,,,,,,true,f,keypress(f),0.51,0.51,false,417584.1999999285,417580.89999997616,416219.127,416376.39999997616,416369.121,417637.843,,,
choice,canvas.Screen,0_8_24_2,2022-07-15T22:06:10.617Z,,,,0.53,,4,1004.0730000000331,timeout,,,0.53,,0.51,,,6,46,,,,,,,,,,,0.51,false,418627.1999999285,418625.25,417621.177,417632,417637.843,418641.916,146,,
ITI,canvas.Screen,0_8_24_3,2022-07-15T22:06:11.120Z,,,2955,,,4,503.17599999997765,timeout,,,0.53,,,,,,,,,,,,,,,,,0.51,false,419130.2999999523,419128.426,418625.25,418629,418641.916,419145.092,,,
trial,flow.Sequence,0_8_24,2022-07-15T22:06:11.120Z,,,,,,4,3394.2359999999753,completion,,,0.53,,,,,,,,,,,,,,,,,0.51,false,419130.89999997616,419128.426,415717.524,415718.5,415734.19,419145.092,,,
fixation,canvas.Screen,0_8_25_0,2022-07-15T22:06:11.621Z,,,,,,6,618.2640000000247,timeout,,,0.485,,,,,,,,,,,,,,,,,0.455,true,419631.89999997616,419630.028,419128.426,419131.2999999523,419145.092,419763.356,,,
stimulus,canvas.Screen,0_8_25_1,2022-07-15T22:06:13.520Z,,,,,,6,1763.5439999761293,response,,0.455,0.485,,,https://raw.githubusercontent.com/carero2/loss-perception/main/png/0.455blue1yellowb%3D1w%3D100v%3D49.png,https://raw.githubusercontent.com/carero2/loss-perception/main/png/0.485blue1yellowb%3D1w%3D100v%3D49.png,,,,,,,,,true,j,keypress(j),0.485,0.455,true,421531,421526.89999997616,419630.028,419781.60000002384,419763.356,421582.056,,,
choice,canvas.Screen,0_8_25_2,2022-07-15T22:06:14.562Z,,,,0.485,,6,1005.6990000000224,timeout,,,0.485,,0.455,,,-3,43,,,,,,,,,,,0.455,true,422572.89999997616,422571.089,421565.39,421573.2999999523,421582.056,422587.755,143,,
ITI,canvas.Screen,0_8_25_3,2022-07-15T22:06:15.065Z,,,2787,,,6,503.28100000001723,timeout,,,0.485,,,,,,,,,,,,,,,,,0.455,true,423076,423074.37,422571.089,422573.5,422587.755,423091.036,,,
trial,flow.Sequence,0_8_25,2022-07-15T22:06:15.066Z,,,,,,6,3929.277999999991,completion,,,0.485,,,,,,,,,,,,,,,,,0.455,true,423076.89999997616,423074.37,419128.426,419131.1999999285,419145.092,423091.036,,,
fixation,canvas.Screen,0_8_26_0,2022-07-15T22:06:15.567Z,,,,,,2,668.255999999994,timeout,,,0.515,,,,,,,,,,,,,,,,,0.505,false,423577.60000002384,423575.966,423074.37,423077.39999997616,423091.036,423759.292,,,
stimulus,canvas.Screen,0_8_26_1,2022-07-15T22:06:16.818Z,,,,,,2,1064.6079999761423,response,,0.515,0.515,,,https://raw.githubusercontent.com/carero2/loss-perception/main/png/0.515blue1yellowb%3D1w%3D100v%3D80.png,https://raw.githubusercontent.com/carero2/loss-perception/main/png/0.505blue1yellowb%3D1w%3D100v%3D80.png,,,,,,,,,true,f,keypress(f),0.505,0.505,false,424828.5,424823.89999997616,423575.966,423770.89999997616,423759.292,424894.804,,,
choice,canvas.Screen,0_8_26_2,2022-07-15T22:06:17.872Z,,,,0.515,,2,1003.5910000000149,timeout,,,0.515,,0.505,,,3,46,,,,,,,,,,,0.505,false,425882.6999999285,425881.729,424878.138,424880.2999999523,424894.804,425898.395,146,,
ITI,canvas.Screen,0_8_26_3,2022-07-15T22:06:18.377Z,,,2028,,,2,503.2299999999814,timeout,,,0.515,,,,,,,,,,,,,,,,,0.505,false,426388.10000002384,426384.959,425881.729,425882.6999999285,425898.395,426401.625,,,
trial,flow.Sequence,0_8_26,2022-07-15T22:06:18.378Z,,,,,,2,3293.9229999999516,completion,,,0.515,,,,,,,,,,,,,,,,,0.505,false,426389,426384.959,423074.37,423077.2999999523,423091.036,426401.625,,,
fixation,canvas.Screen,0_8_27_0,2022-07-15T22:06:18.878Z,,,,,,2,651.5989999999874,timeout,,,0.515,,,,,,,,,,,,,,,,,0.505,false,426888.6999999285,426886.564,426384.959,426389.60000002384,426401.625,427053.224,,,
stimulus,canvas.Screen,0_8_27_1,2022-07-15T22:06:20.807Z,,,,,,2,1762.6759999761707,response,,0.515,0.515,,,https://raw.githubusercontent.com/carero2/loss-perception/main/png/0.515blue1yellowb%3D1w%3D100v%3D30.png,https://raw.githubusercontent.com/carero2/loss-perception/main/png/0.505blue1yellowb%3D1w%3D100v%3D30.png,,,,,,,,,true,f,keypress(f),0.505,0.505,false,428817.89999997616,428815.89999997616,426886.564,427084.5,427053.224,428855.47,,,
choice,canvas.Screen,0_8_27_2,2022-07-15T22:06:21.835Z,,,,0.515,,2,1005.640000000014,timeout,,,0.515,,0.505,,,3,49,,,,,,,,,,,0.505,false,429846,429844.444,428838.804,428842.5,428855.47,429861.11,149,,
ITI,canvas.Screen,0_8_27_3,2022-07-15T22:06:22.339Z,,,2310,,,2,503.17800000001444,timeout,,,0.515,,,,,,,,,,,,,,,,,0.505,false,430349.5,430347.622,429844.444,429846.10000002384,429861.11,430364.288,,,
trial,flow.Sequence,0_8_27,2022-07-15T22:06:22.339Z,,,,,,2,3945.996999999974,completion,,,0.515,,,,,,,,,,,,,,,,,0.505,false,430349.7999999523,430347.622,426384.959,426389.39999997616,426401.625,430364.288,,,
fixation,canvas.Screen,0_8_28_0,2022-07-15T22:06:22.841Z,,,,,,2,634.9770000000135,timeout,,,0.495,,,,,,,,,,,,,,,,,0.485,true,430851.39999997616,430849.271,430347.622,430350,430364.288,430999.265,,,
stimulus,canvas.Screen,0_8_28_1,2022-07-15T22:06:24.116Z,,,,,,2,1124.6349999761442,response,,0.485,0.495,,,https://raw.githubusercontent.com/carero2/loss-perception/main/png/0.485blue1yellowb%3D1w%3D100v%3D18.png,https://raw.githubusercontent.com/carero2/loss-perception/main/png/0.495blue1yellowb%3D1w%3D100v%3D18.png,,,,,,,,,true,j,keypress(j),0.495,0.485,true,432126.7999999523,432123.89999997616,430849.271,431022.2999999523,430999.265,432168.053,,,
choice,canvas.Screen,0_8_28_2,2022-07-15T22:06:25.147Z,,,,0.495,,2,1003.6429999999818,timeout,,,0.495,,0.485,,,-1,48,,,,,,,,,,,0.485,true,433157.2999999523,433155.03,432151.387,432160.89999997616,432168.053,433171.696,148,,
ITI,canvas.Screen,0_8_28_3,2022-07-15T22:06:25.650Z,,,2431,,,2,503.2270000000135,timeout,,,0.495,,,,,,,,,,,,,,,,,0.485,true,433660.6999999285,433658.257,433155.03,433157.89999997616,433171.696,433674.923,,,
trial,flow.Sequence,0_8_28,2022-07-15T22:06:25.651Z,,,,,,2,3293.9689999999828,completion,,,0.495,,,,,,,,,,,,,,,,,0.485,true,433661.60000002384,433658.257,430347.622,430349.89999997616,430364.288,433674.923,,,
fixation,canvas.Screen,0_8_29_0,2022-07-15T22:06:26.151Z,,,,,,4,634.880999999994,timeout,,,0.49,,,,,,,,,,,,,,,,,0.47,false,434161.7999999523,434159.81,433658.257,433662,433674.923,434309.804,,,
stimulus,canvas.Screen,0_8_29_1,2022-07-15T22:06:27.772Z,,,,,,4,1467.0959999761544,response,,0.49,0.49,,,https://raw.githubusercontent.com/carero2/loss-perception/main/png/0.49blue1yellowb%3D1w%3D100v%3D72.png,https://raw.githubusercontent.com/carero2/loss-perception/main/png/0.47blue1yellowb%3D1w%3D100v%3D72.png,,,,,,,,,true,f,keypress(f),0.47,0.47,false,435782.1999999285,435776.89999997616,434159.81,434334.6999999285,434309.804,435828.575,,,
choice,canvas.Screen,0_8_29_2,2022-07-15T22:06:28.807Z,,,,0.49,,4,1004.7749999999651,timeout,,,0.49,,0.47,,,-2,46,,,,,,,,,,,0.47,false,436817.60000002384,436816.684,435811.909,435814.2999999523,435828.575,436833.35,146,,
ITI,canvas.Screen,0_8_29_3,2022-07-15T22:06:29.311Z,,,2858,,,4,503.22299999999814,timeout,,,0.49,,,,,,,,,,,,,,,,,0.47,false,437321.60000002384,437319.907,436816.684,436817.6999999285,436833.35,437336.573,,,
trial,flow.Sequence,0_8_29,2022-07-15T22:06:29.312Z,,,,,,4,3644.9839999999967,completion,,,0.49,,,,,,,,,,,,,,,,,0.47,false,437322.1999999285,437319.907,433658.257,433661.89999997616,433674.923,437336.573,,,
fixation,canvas.Screen,0_8_30_0,2022-07-15T22:06:29.812Z,,,,,,6,618.3160000000498,timeout,,,0.485,,,,,,,,,,,,,,,,,0.455,false,437822.7999999523,437821.561,437319.907,437322.60000002384,437336.573,437954.889,,,
stimulus,canvas.Screen,0_8_30_1,2022-07-15T22:06:31.548Z,,,,,,6,1599.0109999761335,response,,0.485,0.485,,,https://raw.githubusercontent.com/carero2/loss-perception/main/png/0.485blue1yellowb%3D1w%3D100v%3D55.png,https://raw.githubusercontent.com/carero2/loss-perception/main/png/0.455blue1yellowb%3D1w%3D100v%3D55.png,,,,,,,,,true,f,keypress(f),0.455,0.455,false,439558.7999999523,439553.89999997616,437821.561,437981,437954.889,439623.596,,,
choice,canvas.Screen,0_8_30_2,2022-07-15T22:06:32.604Z,,,,0.485,,6,1005.2689999999711,timeout,,,0.485,,0.455,,,-3,43,,,,,,,,,,,0.455,false,440614.6999999285,440612.199,439606.93,439620.60000002384,439623.596,440628.865,143,,
ITI,canvas.Screen,0_8_30_3,2022-07-15T22:06:33.107Z,,,2517,,,6,503.17499999998836,timeout,,,0.485,,,,,,,,,,,,,,,,,0.455,false,441118.10000002384,441115.374,440612.199,440615.10000002384,440628.865,441132.04,,,
trial,flow.Sequence,0_8_30,2022-07-15T22:06:33.108Z,,,,,,6,3778.801000000036,completion,,,0.485,,,,,,,,,,,,,,,,,0.455,false,441119.10000002384,441115.374,437319.907,437322.5,437336.573,441132.04,,,
fixation,canvas.Screen,0_8_31_0,2022-07-15T22:06:33.608Z,,,,,,4,651.6540000000386,timeout,,,0.51,,,,,,,,,,,,,,,,,0.49,true,441619,441617.034,441115.374,441119.7999999523,441132.04,441783.694,,,
stimulus,canvas.Screen,0_8_31_1,2022-07-15T22:06:34.779Z,,,,,,4,1004.2059999761404,response,,0.49,0.51,,,https://raw.githubusercontent.com/carero2/loss-perception/main/png/0.49blue1yellowb%3D1w%3D100v%3D66.png,https://raw.githubusercontent.com/carero2/loss-perception/main/png/0.51blue1yellowb%3D1w%3D100v%3D66.png,,,,,,,,,true,j,keypress(j),0.51,0.49,true,442789.39999997616,442787.89999997616,441617.034,441800.39999997616,441783.694,442819.15,,,
choice,canvas.Screen,0_8_31_2,2022-07-15T22:06:35.797Z,,,,0.51,,4,1003.255999999994,timeout,,,0.51,,0.49,,,2,45,,,,,,,,,,,0.49,true,443807.89999997616,443805.74,442802.484,442805.2999999523,442819.15,443822.406,145,,
ITI,canvas.Screen,0_8_31_3,2022-07-15T22:06:36.300Z,,,2038,,,4,503.17699999996694,timeout,,,0.51,,,,,,,,,,,,,,,,,0.49,true,444310.89999997616,444308.917,443805.74,443808.39999997616,443822.406,444325.583,,,
trial,flow.Sequence,0_8_31,2022-07-15T22:06:36.301Z,,,,,,4,3176.877000000037,completion,,,0.51,,,,,,,,,,,,,,,,,0.49,true,444311.7999999523,444308.917,441115.374,441119.60000002384,441132.04,444325.583,,,
fixation,canvas.Screen,0_8_32_0,2022-07-15T22:06:36.801Z,,,,,,2,634.9340000000084,timeout,,,0.505,,,,,,,,,,,,,,,,,0.495,false,444811.89999997616,444810.523,444308.917,444312.1999999285,444325.583,444960.517,,,
stimulus,canvas.Screen,0_8_32_1,2022-07-15T22:06:38.180Z,,,,,,2,1224.3829999761656,response,,0.505,0.505,,,https://raw.githubusercontent.com/carero2/loss-perception/main/png/0.505blue1yellowb%3D1w%3D100v%3D68.png,https://raw.githubusercontent.com/carero2/loss-perception/main/png/0.495blue1yellowb%3D1w%3D100v%3D68.png,,,,,,,,,true,f,keypress(f),0.495,0.495,false,446190.2999999523,446184.89999997616,444810.523,444969.5,444960.517,446229.241,,,
choice,canvas.Screen,0_8_32_2,2022-07-15T22:06:39.208Z,,,,0.505,,2,1004.0169999999925,timeout,,,0.505,,0.495,,,1,46,,,,,,,,,,,0.495,false,447218.89999997616,447216.592,446212.575,446219.6999999285,446229.241,447233.258,146,,
ITI,canvas.Screen,0_8_32_3,2022-07-15T22:06:39.711Z,,,2955,,,2,503.2270000000135,timeout,,,0.505,,,,,,,,,,,,,,,,,0.495,false,447721.89999997616,447719.819,447216.592,447219.2999999523,447233.258,447736.485,,,
trial,flow.Sequence,0_8_32,2022-07-15T22:06:39.712Z,,,,,,2,3394.2360000000335,completion,,,0.505,,,,,,,,,,,,,,,,,0.495,false,447722.6999999285,447719.819,444308.917,444312.10000002384,444325.583,447736.485,,,
fixation,canvas.Screen,0_8_33_0,2022-07-15T22:06:40.212Z,,,,,,4,651.6020000000135,timeout,,,0.53,,,,,,,,,,,,,,,,,0.51,false,448222.7999999523,448221.427,447719.819,447723,447736.485,448388.087,,,
stimulus,canvas.Screen,0_8_33_1,2022-07-15T22:06:41.537Z,,,,,,4,1155.8129999761586,response,,0.53,0.53,,,https://raw.githubusercontent.com/carero2/loss-perception/main/png/0.53blue1yellowb%3D1w%3D100v%3D54.png,https://raw.githubusercontent.com/carero2/loss-perception/main/png/0.51blue1yellowb%3D1w%3D100v%3D54.png,,,,,,,,,true,f,keypress(f),0.51,0.51,false,449547.5,449543.89999997616,448221.427,448395.2999999523,448388.087,449573.534,,,
choice,canvas.Screen,0_8_33_2,2022-07-15T22:06:42.551Z,,,,0.53,,4,1003.8010000000359,timeout,,,0.53,,0.51,,,6,52,,,,,,,,,,,0.51,false,450561.7999999523,450560.669,449556.868,449572.39999997616,449573.534,450577.335,152,,
ITI,canvas.Screen,0_8_33_3,2022-07-15T22:06:43.055Z,,,2196,,,4,503.1779999999562,timeout,,,0.53,,,,,,,,,,,,,,,,,0.51,false,451065.6999999285,451063.847,450560.669,450562,450577.335,451080.513,,,
trial,flow.Sequence,0_8_33,2022-07-15T22:06:43.056Z,,,,,,4,3327.362000000023,completion,,,0.53,,,,,,,,,,,,,,,,,0.51,false,451066.5,451063.847,447719.819,447722.89999997616,447736.485,451080.513,,,
fixation,canvas.Screen,0_8_34_0,2022-07-15T22:06:43.557Z,,,,,,6,634.9290000000037,timeout,,,0.515,,,,,,,,,,,,,,,,,0.485,true,451567.5,451565.448,451063.847,451066.89999997616,451080.513,451715.442,,,
stimulus,canvas.Screen,0_8_34_1,2022-07-15T22:06:44.537Z,,,,,,6,828.4579999761772,response,,0.485,0.515,,,https://raw.githubusercontent.com/carero2/loss-perception/main/png/0.485blue1yellowb%3D1w%3D100v%3D35.png,https://raw.githubusercontent.com/carero2/loss-perception/main/png/0.515blue1yellowb%3D1w%3D100v%3D35.png,,,,,,,,,true,j,keypress(j),0.515,0.485,true,452547.39999997616,452543.89999997616,451565.448,451723,451715.442,452600.904,,,
choice,canvas.Screen,0_8_34_2,2022-07-15T22:06:45.578Z,,,,0.515,,6,1002.7270000000135,timeout,,,0.515,,0.485,,,3,55,,,,,,,,,,,0.485,true,453588.6999999285,453586.965,452584.238,452591.2999999523,452600.904,453603.631,155,,
ITI,canvas.Screen,0_8_34_3,2022-07-15T22:06:46.081Z,,,2324,,,6,503.2250000000349,timeout,,,0.515,,,,,,,,,,,,,,,,,0.485,true,454092,454090.19,453586.965,453589.1999999285,453603.631,454106.856,,,
trial,flow.Sequence,0_8_34,2022-07-15T22:06:46.082Z,,,,,,6,3009.677000000025,completion,,,0.515,,,,,,,,,,,,,,,,,0.485,true,454092.89999997616,454090.19,451063.847,451066.7999999523,451080.513,454106.856,,,
fixation,canvas.Screen,0_8_35_0,2022-07-15T22:06:46.584Z,,,,,,6,634.9269999999669,timeout,,,0.545,,,,,,,,,,,,,,,,,0.515,false,454594.39999997616,454591.789,454090.19,454093.2999999523,454106.856,454741.783,,,
stimulus,canvas.Screen,0_8_35_1,2022-07-15T22:06:47.620Z,,,,,,6,885.1169999761623,response,,0.545,0.545,,,https://raw.githubusercontent.com/carero2/loss-perception/main/png/0.545blue1yellowb%3D1w%3D100v%3D11.png,https://raw.githubusercontent.com/carero2/loss-perception/main/png/0.515blue1yellowb%3D1w%3D100v%3D11.png,,,,,,,,,true,f,keypress(f),0.515,0.515,false,455630.2999999523,455626.89999997616,454591.789,454749.5,454741.783,455693.911,,,
choice,canvas.Screen,0_8_35_2,2022-07-15T22:06:48.673Z,,,,0.545,,6,1002.9409999999916,timeout,,,0.545,,0.515,,,9,64,,,,,,,,,,,0.515,false,456683.7999999523,456680.186,455677.245,455679,455693.911,456696.852,164,,
ITI,canvas.Screen,0_8_35_3,2022-07-15T22:06:49.174Z,,,2188,,,6,503.21899999998277,timeout,,,0.545,,,,,,,,,,,,,,,,,0.515,false,457185,457183.405,456680.186,456684.39999997616,456696.852,457200.071,,,
trial,flow.Sequence,0_8_35,2022-07-15T22:06:49.175Z,,,,,,6,3076.548999999999,completion,,,0.545,,,,,,,,,,,,,,,,,0.515,false,457185.60000002384,457183.405,454090.19,454093.1999999285,454106.856,457200.071,,,
fixation,canvas.Screen,0_8_36_0,2022-07-15T22:06:49.676Z,,,,,,6,668.320000000007,timeout,,,0.485,,,,,,,,,,,,,,,,,0.455,true,457686.5,457685.065,457183.405,457186,457200.071,457868.391,,,
stimulus,canvas.Screen,0_8_36_1,2022-07-15T22:06:51.117Z,,,,,,6,1255.5089999761549,response,,0.455,0.485,,,https://raw.githubusercontent.com/carero2/loss-perception/main/png/0.455blue1yellowb%3D1w%3D100v%3D98.png,https://raw.githubusercontent.com/carero2/loss-perception/main/png/0.485blue1yellowb%3D1w%3D100v%3D98.png,,,,,,,,,true,j,keypress(j),0.485,0.455,true,459127.89999997616,459123.89999997616,457685.065,457876,457868.391,459170.562,,,
choice,canvas.Screen,0_8_36_2,2022-07-15T22:06:52.148Z,,,,0.485,,6,1004.1170000000275,timeout,,,0.485,,0.455,,,-3,61,,,,,,,,,,,0.455,true,460158.89999997616,460158.013,459153.896,459156.60000002384,459170.562,460174.679,161,,
ITI,canvas.Screen,0_8_36_3,2022-07-15T22:06:52.651Z,,,2156,,,6,503.17700000002515,timeout,,,0.485,,,,,,,,,,,,,,,,,0.455,true,460662.10000002384,460661.19,460158.013,460159.10000002384,460174.679,460677.856,,,
trial,flow.Sequence,0_8_36,2022-07-15T22:06:52.652Z,,,,,,6,3461.119000000006,completion,,,0.485,,,,,,,,,,,,,,,,,0.455,true,460662.2999999523,460661.19,457183.405,457185.7999999523,457200.071,460677.856,,,
fixation,canvas.Screen,0_8_37_0,2022-07-15T22:06:53.154Z,,,,,,6,651.6479999999865,timeout,,,0.515,,,,,,,,,,,,,,,,,0.485,false,461164.39999997616,461162.844,460661.19,460662.39999997616,460677.856,461329.504,,,
stimulus,canvas.Screen,0_8_37_1,2022-07-15T22:06:54.851Z,,,,,,6,1530.3959999761428,response,,0.515,0.515,,,https://raw.githubusercontent.com/carero2/loss-perception/main/png/0.515blue1yellowb%3D1w%3D100v%3D21.png,https://raw.githubusercontent.com/carero2/loss-perception/main/png/0.485blue1yellowb%3D1w%3D100v%3D21.png,,,,,,,,,true,f,keypress(f),0.485,0.485,false,462861.7999999523,462859.89999997616,461162.844,461340.39999997616,461329.504,462914.938,,,
choice,canvas.Screen,0_8_37_2,2022-07-15T22:06:55.894Z,,,,0.515,,6,1004.9989999999525,timeout,,,0.515,,0.485,,,3,64,,,,,,,,,,,0.485,false,463904.5,463903.271,462898.272,462900.1999999285,462914.938,463919.937,164,,
ITI,canvas.Screen,0_8_37_3,2022-07-15T22:06:56.396Z,,,2838,,,6,503.22299999999814,timeout,,,0.515,,,,,,,,,,,,,,,,,0.485,false,464407.10000002384,464406.494,463903.271,463904.60000002384,463919.937,464423.16,,,
trial,flow.Sequence,0_8_37,2022-07-15T22:06:56.397Z,,,,,,6,3728.637999999977,completion,,,0.515,,,,,,,,,,,,,,,,,0.485,false,464407.39999997616,464406.494,460661.19,460662.39999997616,460677.856,464423.16,,,
fixation,canvas.Screen,0_8_38_0,2022-07-15T22:06:56.898Z,,,,,,4,618.265000000014,timeout,,,0.51,,,,,,,,,,,,,,,,,0.49,false,464909,464908.097,464406.494,464407.5,464423.16,465041.425,,,
stimulus,canvas.Screen,0_8_38_1,2022-07-15T22:06:58.380Z,,,,,,4,1343.4749999761698,response,,0.51,0.51,,,https://raw.githubusercontent.com/carero2/loss-perception/main/png/0.51blue1yellowb%3D1w%3D100v%3D46.png,https://raw.githubusercontent.com/carero2/loss-perception/main/png/0.49blue1yellowb%3D1w%3D100v%3D46.png,,,,,,,,,true,j,keypress(j),0.49,0.49,false,466390.89999997616,466384.89999997616,464908.097,465049.60000002384,465041.425,466426.76,,,
choice,canvas.Screen,0_8_38_2,2022-07-15T22:06:59.407Z,,,,0.49,,4,1004.4579999999842,timeout,,,0.51,,0.51,,,-2,62,,,,,,,,,,,0.49,false,467417.39999997616,467414.552,466410.094,466413.6999999285,466426.76,467431.218,162,,
ITI,canvas.Screen,0_8_38_3,2022-07-15T22:06:59.909Z,,,2028,,,4,503.16399999998976,timeout,,,0.51,,,,,,,,,,,,,,,,,0.49,false,467919.7999999523,467917.716,467414.552,467417.89999997616,467431.218,467934.382,,,
trial,flow.Sequence,0_8_38,2022-07-15T22:06:59.910Z,,,,,,4,3494.5560000000405,completion,,,0.51,,,,,,,,,,,,,,,,,0.49,false,467920.39999997616,467917.716,464406.494,464407.39999997616,464423.16,467934.382,,,
fixation,canvas.Screen,0_8_39_0,2022-07-15T22:07:00.411Z,,,,,,2,634.9370000000345,timeout,,,0.515,,,,,,,,,,,,,,,,,0.505,false,468421.2999999523,468419.325,467917.716,467920.7999999523,467934.382,468569.319,,,
stimulus,canvas.Screen,0_8_39_1,2022-07-15T22:07:01.639Z,,,,,,2,1075.5809999761404,response,,0.515,0.515,,,https://raw.githubusercontent.com/carero2/loss-perception/main/png/0.515blue1yellowb%3D1w%3D100v%3D50.png,https://raw.githubusercontent.com/carero2/loss-perception/main/png/0.505blue1yellowb%3D1w%3D100v%3D50.png,,,,,,,,,true,f,keypress(f),0.505,0.505,false,469649.60000002384,469644.89999997616,468419.325,468597.10000002384,468569.319,469688.096,,,
choice,canvas.Screen,0_8_39_2,2022-07-15T22:07:02.666Z,,,,0.515,,2,1003.4839999999967,timeout,,,0.515,,0.505,,,3,65,,,,,,,,,,,0.505,false,470676.39999997616,470674.914,469671.43,469682.2999999523,469688.096,470691.58,165,,
ITI,canvas.Screen,0_8_39_3,2022-07-15T22:07:03.169Z,,,2772,,,2,503.2249999999767,timeout,,,0.515,,,,,,,,,,,,,,,,,0.505,false,471179.60000002384,471178.139,470674.914,470676.5,470691.58,471194.805,,,
trial,flow.Sequence,0_8_39,2022-07-15T22:07:03.169Z,,,,,,2,3243.7570000000414,completion,,,0.515,,,,,,,,,,,,,,,,,0.505,false,471179.7999999523,471178.139,467917.716,467920.6999999285,467934.382,471194.805,,,
fixation,canvas.Screen,0_8_40_0,2022-07-15T22:07:03.671Z,,,,,,4,668.2630000000354,timeout,,,0.53,,,,,,,,,,,,,,,,,0.51,true,471681.5,471679.742,471178.139,471179.89999997616,471194.805,471863.068,,,
stimulus,canvas.Screen,0_8_40_1,2022-07-15T22:07:04.693Z,,,,,,4,837.8319999761297,response,,0.51,0.53,,,https://raw.githubusercontent.com/carero2/loss-perception/main/png/0.51blue1yellowb%3D1w%3D100v%3D43.png,https://raw.githubusercontent.com/carero2/loss-perception/main/png/0.53blue1yellowb%3D1w%3D100v%3D43.png,,,,,,,,,true,j,keypress(j),0.53,0.51,true,472703.7999999523,472700.89999997616,471679.742,471891.10000002384,471863.068,472732.029,,,
choice,canvas.Screen,0_8_40_2,2022-07-15T22:07:05.709Z,,,,0.53,,4,1002.664000000048,timeout,,,0.53,,0.51,,,6,71,,,,,,,,,,,0.51,true,473720,473718.027,472715.363,472731.39999997616,472732.029,473734.693,171,,
ITI,canvas.Screen,0_8_40_3,2022-07-15T22:07:06.212Z,,,2789,,,4,503.12099999998463,timeout,,,0.53,,,,,,,,,,,,,,,,,0.51,true,474222.60000002384,474221.148,473718.027,473720.5,473734.693,474237.814,,,
trial,flow.Sequence,0_8_40,2022-07-15T22:07:06.212Z,,,,,,4,3026.3429999999935,completion,,,0.53,,,,,,,,,,,,,,,,,0.51,true,474222.89999997616,474221.148,471178.139,471179.89999997616,471194.805,474237.814,,,
fixation,canvas.Screen,0_8_41_0,2022-07-15T22:07:06.715Z,,,,,,4,651.6489999999758,timeout,,,0.49,,,,,,,,,,,,,,,,,0.47,false,474725.10000002384,474722.803,474221.148,474223,474237.814,474889.463,,,
stimulus,canvas.Screen,0_8_41_1,2022-07-15T22:07:07.838Z,,,,,,4,955.4369999761693,response,,0.49,0.49,,,https://raw.githubusercontent.com/carero2/loss-perception/main/png/0.49blue1yellowb%3D1w%3D100v%3D5.png,https://raw.githubusercontent.com/carero2/loss-perception/main/png/0.47blue1yellowb%3D1w%3D100v%3D5.png,,,,,,,,,true,f,keypress(f),0.47,0.47,false,475848.89999997616,475844.89999997616,474722.803,474897.39999997616,474889.463,475924.917,,,
choice,canvas.Screen,0_8_41_2,2022-07-15T22:07:08.903Z,,,,0.49,,4,1003.3209999999963,timeout,,,0.49,,0.47,,,-2,69,,,,,,,,,,,0.47,false,476913.39999997616,476911.572,475908.251,475914.5,475924.917,476928.238,169,,
ITI,canvas.Screen,0_8_41_3,2022-07-15T22:07:09.406Z,,,2121,,,4,503.11999999999534,timeout,,,0.49,,,,,,,,,,,,,,,,,0.47,false,477416.39999997616,477414.692,476911.572,476913.7999999523,476928.238,477431.358,,,
trial,flow.Sequence,0_8_41,2022-07-15T22:07:09.407Z,,,,,,4,3176.877999999968,completion,,,0.49,,,,,,,,,,,,,,,,,0.47,false,477417.10000002384,477414.692,474221.148,474223,474237.814,477431.358,,,
fixation,canvas.Screen,0_8_42_0,2022-07-15T22:07:09.907Z,,,,,,2,684.9830000000075,timeout,,,0.505,,,,,,,,,,,,,,,,,0.495,true,477917.89999997616,477916.349,477414.692,477417.60000002384,477431.358,478116.341,,,
stimulus,canvas.Screen,0_8_42_1,2022-07-15T22:07:11.499Z,,,,,,2,1388.5589999761432,response,,0.495,0.505,,,https://raw.githubusercontent.com/carero2/loss-perception/main/png/0.495blue1yellowb%3D1w%3D100v%3D93.png,https://raw.githubusercontent.com/carero2/loss-perception/main/png/0.505blue1yellowb%3D1w%3D100v%3D93.png,,,,,,,,,true,j,keypress(j),0.505,0.495,true,479509.89999997616,479504.89999997616,477916.349,478124,478116.341,479585.223,,,
choice,canvas.Screen,0_8_42_2,2022-07-15T22:07:12.564Z,,,,0.505,,2,1004.7200000000303,timeout,,,0.505,,0.495,,,1,70,,,,,,,,,,,0.495,true,480574.1999999285,480573.277,479568.557,479583.39999997616,479585.223,480589.943,170,,
ITI,canvas.Screen,0_8_42_3,2022-07-15T22:07:13.067Z,,,2803,,,2,503.170999999973,timeout,,,0.505,,,,,,,,,,,,,,,,,0.495,true,481077.7999999523,481076.448,480573.277,480574.2999999523,480589.943,481093.114,,,
trial,flow.Sequence,0_8_42,2022-07-15T22:07:13.068Z,,,,,,2,3645.0899999999674,completion,,,0.505,,,,,,,,,,,,,,,,,0.495,true,481078.39999997616,481076.448,477414.692,477417.5,477431.358,481093.114,,,
fixation,canvas.Screen,0_8_43_0,2022-07-15T22:07:13.569Z,,,,,,2,634.9340000000084,timeout,,,0.495,,,,,,,,,,,,,,,,,0.485,true,481579.1999999285,481578.054,481076.448,481078.7999999523,481093.114,481728.048,,,
stimulus,canvas.Screen,0_8_43_1,2022-07-15T22:07:14.897Z,,,,,,2,1172.8519999761484,response,,0.485,0.495,,,https://raw.githubusercontent.com/carero2/loss-perception/main/png/0.485blue1yellowb%3D1w%3D100v%3D11.png,https://raw.githubusercontent.com/carero2/loss-perception/main/png/0.495blue1yellowb%3D1w%3D100v%3D11.png,,,,,,,,,true,j,keypress(j),0.495,0.485,true,482907.7999999523,482900.89999997616,481578.054,481745.6999999285,481728.048,482963.495,,,
choice,canvas.Screen,0_8_43_2,2022-07-15T22:07:15.942Z,,,,0.495,,2,1003.9089999999851,timeout,,,0.495,,0.485,,,-1,69,,,,,,,,,,,0.485,true,483952.89999997616,483950.738,482946.829,482952,482963.495,483967.404,169,,
ITI,canvas.Screen,0_8_43_3,2022-07-15T22:07:16.446Z,,,2700,,,2,503.2280000000028,timeout,,,0.495,,,,,,,,,,,,,,,,,0.485,true,484456.60000002384,484453.966,483950.738,483953.39999997616,483967.404,484470.632,,,
trial,flow.Sequence,0_8_43,2022-07-15T22:07:16.447Z,,,,,,2,3360.8520000000135,completion,,,0.495,,,,,,,,,,,,,,,,,0.485,true,484457.1999999285,484453.966,481076.448,481078.6999999285,481093.114,484470.632,,,
fixation,canvas.Screen,0_8_44_0,2022-07-15T22:07:16.947Z,,,,,,6,651.5950000000303,timeout,,,0.545,,,,,,,,,,,,,,,,,0.515,true,484957.6999999285,484955.567,484453.966,484457.5,484470.632,485122.227,,,
stimulus,canvas.Screen,0_8_44_1,2022-07-15T22:07:18.018Z,,,,,,6,902.6729999761446,response,,0.515,0.545,,,https://raw.githubusercontent.com/carero2/loss-perception/main/png/0.515blue1yellowb%3D1w%3D100v%3D66.png,https://raw.githubusercontent.com/carero2/loss-perception/main/png/0.545blue1yellowb%3D1w%3D100v%3D66.png,,,,,,,,,true,j,keypress(j),0.545,0.515,true,486028.7999999523,486024.89999997616,484955.567,485130,485122.227,486090.969,,,
choice,canvas.Screen,0_8_44_2,2022-07-15T22:07:19.069Z,,,,0.545,,6,1003.0410000000265,timeout,,,0.545,,0.515,,,9,78,,,,,,,,,,,0.515,true,487079.10000002384,487077.344,486074.303,486080.5,486090.969,487094.01,178,,
ITI,canvas.Screen,0_8_44_3,2022-07-15T22:07:19.572Z,,,2518,,,6,503.23300000000745,timeout,,,0.545,,,,,,,,,,,,,,,,,0.515,true,487582.60000002384,487580.577,487077.344,487079.7999999523,487094.01,487597.243,,,
trial,flow.Sequence,0_8_44,2022-07-15T22:07:19.573Z,,,,,,6,3109.945000000007,completion,,,0.545,,,,,,,,,,,,,,,,,0.515,true,487583.10000002384,487580.577,484453.966,484457.39999997616,484470.632,487597.243,,,
1st block,flow.Loop,0_8,2022-07-15T22:07:19.573Z,,,,,,,168393.71600000001,completion,,,,,,,,,,,,,,,,,,,,,,487583.6999999285,487580.577,319170.195,319173.5,319186.861,487597.243,,,
show amount,html.Screen,0_9,2022-07-15T22:07:50.977Z,,,,,,,31382.65699997614,response,,,,,,,,,,,,,,,,,Continue,click #Continue,,,,518988,518979.89999997616,487580.577,487586.5,487597.243,518998.592,,,
second block,canvas.Screen,0_10,2022-07-15T22:08:11.106Z,,,,,,,20113.307999976154,response,,,,,,,,,,,,,,,,,space,keypress(Space),,,,539116.5,539111.8999999762,518981.926,518988,518998.592,539131.816,,,
fixation,canvas.Screen,0_11_0_0,2022-07-15T22:08:11.605Z,,,,,,6,631.8120000000345,timeout,,,0.545,,,,,,,,,,,,,,,,,0.515,true,539615.8999999762,539613.634,539115.15,539117.1000000238,539131.816,539763.628,,,
stimulus,canvas.Screen,0_11_0_1,2022-07-15T22:08:12.824Z,,,,,,6,1068.271999976132,response,,0.515,0.545,,,https://raw.githubusercontent.com/carero2/loss-perception/main/png/0.515blue1yellowb%3D1w%3D100v%3D69.png,https://raw.githubusercontent.com/carero2/loss-perception/main/png/0.545blue1yellowb%3D1w%3D100v%3D69.png,,,,,,,,,true,j,keypress(j),0.545,0.515,true,540835.1000000238,540831.8999999762,539613.634,539783.5,539763.628,540882.357,,,
choice,canvas.Screen,0_11_0_2,2022-07-15T22:08:13.861Z,,,,0.545,,6,1003.5210000000661,timeout,,,0.545,,0.515,,,9,,9,,,,,,,,,,0.515,true,541872.1000000238,541869.212,540865.691,540872.1999999285,540882.357,541885.878,187,,
ITI,canvas.Screen,0_11_0_3,2022-07-15T22:08:14.364Z,,,2242,,,6,503.1790000000037,timeout,,,0.545,,,,,,,,,,,,,,,,,0.515,true,542374.1999999285,542372.391,541869.212,541872.8999999762,541885.878,542389.057,,,
trial,flow.Sequence,0_11_0,2022-07-15T22:08:14.364Z,,,,,,6,3240.5749999999534,completion,,,0.545,,,,,,,,,,,,,,,,,0.515,true,542374.7999999523,542372.391,539115.15,539116.8999999762,539131.816,542389.057,,,
fixation,canvas.Screen,0_11_1_0,2022-07-15T22:08:14.866Z,,,,,,2,634.9270000000251,timeout,,,0.495,,,,,,,,,,,,,,,,,0.485,false,542876.3999999762,542873.99,542372.391,542375.1999999285,542389.057,543023.984,,,
stimulus,canvas.Screen,0_11_1_1,2022-07-15T22:08:16.376Z,,,,,,2,1360.9159999761032,response,,0.495,0.495,,,https://raw.githubusercontent.com/carero2/loss-perception/main/png/0.495blue1yellowb%3D1w%3D100v%3D72.png,https://raw.githubusercontent.com/carero2/loss-perception/main/png/0.485blue1yellowb%3D1w%3D100v%3D72.png,,,,,,,,,true,j,keypress(j),0.485,0.485,false,544386.3999999762,544384.8999999762,542873.99,543071,543023.984,544426.202,,,
choice,canvas.Screen,0_11_1_2,2022-07-15T22:08:17.406Z,,,,0.485,,2,1004.3429999999935,timeout,,,0.495,,0.495,,,-3,,6,,,,,,,,,,0.485,false,545416.1999999285,545413.879,544409.536,544419.6000000238,544426.202,545430.545,184,,
ITI,canvas.Screen,0_11_1_3,2022-07-15T22:08:17.908Z,,,2987,,,2,503.17299999995157,timeout,,,0.495,,,,,,,,,,,,,,,,,0.485,false,545918.7999999523,545917.052,545413.879,545416.6999999285,545430.545,545933.718,,,
trial,flow.Sequence,0_11_1,2022-07-15T22:08:17.909Z,,,,,,2,3527.9949999999953,completion,,,0.495,,,,,,,,,,,,,,,,,0.485,false,545919.6000000238,545917.052,542372.391,542375,542389.057,545933.718,,,
fixation,canvas.Screen,0_11_2_0,2022-07-15T22:08:18.410Z,,,,,,6,534.9910000000382,timeout,,,0.515,,,,,,,,,,,,,,,,,0.485,true,546420.5,546418.711,545917.052,545920.1000000238,545933.718,546468.709,,,
stimulus,canvas.Screen,0_11_2_1,2022-07-15T22:08:20.092Z,,,,,,6,1632.1909999761265,response,,0.485,0.515,,,https://raw.githubusercontent.com/carero2/loss-perception/main/png/0.485blue1yellowb%3D1w%3D100v%3D53.png,https://raw.githubusercontent.com/carero2/loss-perception/main/png/0.515blue1yellowb%3D1w%3D100v%3D53.png,,,,,,,,,true,j,keypress(j),0.515,0.485,true,548102.3999999762,548100.8999999762,546418.711,546480.8999999762,546468.709,548137.099,,,
choice,canvas.Screen,0_11_2_2,2022-07-15T22:08:21.118Z,,,,0.515,,6,1005.3099999999395,timeout,,,0.515,,0.485,,,3,,9,,,,,,,,,,0.485,true,549128.3999999762,549125.743,548120.433,548133.6000000238,548137.099,549142.409,187,,
ITI,canvas.Screen,0_11_2_3,2022-07-15T22:08:21.620Z,,,2256,,,6,503.2270000000717,timeout,,,0.515,,,,,,,,,,,,,,,,,0.485,true,549630.6999999285,549628.97,549125.743,549128.8999999762,549142.409,549645.636,,,
trial,flow.Sequence,0_11_2,2022-07-15T22:08:21.621Z,,,,,,6,3695.2519999999786,completion,,,0.515,,,,,,,,,,,,,,,,,0.485,true,549631.3999999762,549628.97,545917.052,545919.8999999762,545933.718,549645.636,,,
fixation,canvas.Screen,0_11_3_0,2022-07-15T22:08:22.120Z,,,,,,4,651.4899999999907,timeout,,,0.53,,,,,,,,,,,,,,,,,0.51,true,550130.8999999762,550130.466,549628.97,549631.7999999523,549645.636,550297.126,,,
stimulus,canvas.Screen,0_11_3_1,2022-07-15T22:08:23.491Z,,,,,,4,1198.7739999761106,response,,0.51,0.53,,,https://raw.githubusercontent.com/carero2/loss-perception/main/png/0.51blue1yellowb%3D1w%3D100v%3D63.png,https://raw.githubusercontent.com/carero2/loss-perception/main/png/0.53blue1yellowb%3D1w%3D100v%3D63.png,,,,,,,,,true,f,keypress(f),0.53,0.51,true,551501.2999999523,551495.8999999762,550130.466,550320.1000000238,550297.126,551582.689,,,
choice,canvas.Screen,0_11_3_2,2022-07-15T22:08:24.562Z,,,,0.51,,4,1004.0119999999879,timeout,,,0.53,,0.53,,,2,,11,,,,,,,,,,0.51,true,552572.2999999523,552570.035,551566.023,551568.7999999523,551582.689,552586.701,189,,
