sender,sender_type,sender_id,timestamp,meta,ITI_value,choice,consent,diff_net_value,duration,ended_on,gain_color,left,left_side,loss_color,not_choice,picture_left,picture_right,points,points1Block,points2Block,points3Block,points4Block,points5Block,points6Block,pointsBlock,responded,response,response_action,right,right_side,switch_sides,time_commit,time_end,time_render,time_run,time_show,time_switch,totalPoints,totalPoints_practice,url
welcome,html.Screen,0_0,2022-07-13T16:38:37.220Z,"{""labjs_version"":""20.2.4"",""labjs_build"":{""flavor"":""production"",""commit"":""f5b4a49f956347addd546a832a3327688c2c0fef""},""location"":""https://run.pavlovia.org/Rey/loss-perception/"",""userAgent"":""Mozilla/5.0 (Macintosh; Intel Mac OS X 10.15; rv:102.0) Gecko/20100101 Firefox/102.0"",""platform"":""MacIntel"",""language"":""de"",""locale"":""de-CH"",""timeZone"":""Europe/Zurich"",""timezoneOffset"":-120,""screen_width"":1920,""screen_height"":1080,""scroll_width"":1920,""scroll_height"":919,""window_innerWidth"":1920,""window_innerHeight"":967,""devicePixelRatio"":2}",,,,,2647.26,response,yellow,,,blue,,,,0,0,0,0,0,0,0,0,,Continue,click #Continue,,,,8234,8217,5553.2,5539,5569.74,8253.3,100,100,{}
consent,html.Form,0_1,2022-07-13T16:44:35.966Z,,,,true,,358731.7,form submission,,,,,,,,,,,,,,,,,,,,,,366985,366985,8233.42,8234,8253.3,366981.44,,,
instructions,html.Form,0_2,2022-07-13T16:45:54.549Z,,,,,,78586.56,form submission,,,,,,,,,,,,,,,,,,,,,,445568,445568,366975.48,366986,366981.44,445597,,,
Practice,canvas.Screen,0_3,2022-07-13T16:46:01.097Z,,,,,,6492,response,,,,,,,,,,,,,,,,,space,keypress(Space),,,,452115,452089,445566.4,445568,445597,452115.66,,,
fixation,canvas.Screen,0_4_0_0,2022-07-13T16:46:01.595Z,,,,,18,514.640000000014,timeout,,,0.545,,,,,,,,,,,,,,,,,0.455,false,452613,452598.02,452115.3,452116,452115.66,452630.3,,,
stimulus,canvas.Screen,0_4_0_1,2022-07-13T16:46:02.530Z,,,,,18,896.7000000000116,response,,0.545,0.545,,,https://raw.githubusercontent.com/carero2/loss-perception/main/png/0.545blue1yellowb%3D1w%3D100v%3D63.png,https://raw.githubusercontent.com/carero2/loss-perception/main/png/0.455blue1yellowb%3D1w%3D100v%3D63.png,,,,,,,,,true,f,keypress(f),0.455,0.455,false,453548,453527,452598.02,452614,452630.3,453554.28,,,
choice,canvas.Screen,0_4_0_2,2022-07-13T16:46:04.527Z,,,0.545,,18,2010.219999999972,timeout,,,0.545,,0.455,,,-9,,,,,,,-9,,,,,0.455,false,455546,455530.9,453553.8,453554,453554.28,455564.5,,91,
timeout,canvas.Screen,0_4_0_3,2022-07-13T16:46:04.529Z,,,,,18,NaN,skipped,,,0.545,,,,,,,,,,,,,,,,,0.455,false,455548,455530.9,,455547,,455564.5,,,
ITI,canvas.Screen,0_4_0_4,2022-07-13T16:46:05.044Z,,,,,18,499.4199999999837,timeout,,,0.545,,,,,,,,,,,,,,,,,0.455,false,456063,456047.52,455530.9,455548,455564.5,456063.92,,,
trial,flow.Sequence,0_4_0,2022-07-13T16:46:05.045Z,,,,,18,3931.8600000000442,completion,,,0.545,,,,,,,,,,,,,,,,,0.455,false,456063,456047.52,452115.3,452116,452115.66,456063.92,,,
fixation,canvas.Screen,0_4_1_0,2022-07-13T16:46:05.545Z,,,,,12,516.7999999999884,timeout,,,0.53,,,,,,,,,,,,,,,,,0.47,true,456564,456546.84,456047.52,456063,456063.92,456580.72,,,
stimulus,canvas.Screen,0_4_1_1,2022-07-13T16:46:07.151Z,,,,,12,1569.280000000028,response,,0.47,0.53,,,https://raw.githubusercontent.com/carero2/loss-perception/main/png/0.47blue1yellowb%3D1w%3D100v%3D94.png,https://raw.githubusercontent.com/carero2/loss-perception/main/png/0.53blue1yellowb%3D1w%3D100v%3D94.png,,,,,,,,,true,f,keypress(f),0.53,0.47,true,458170,458150,456546.84,456564,456580.72,458173.26,,,
choice,canvas.Screen,0_4_1_2,2022-07-13T16:46:09.162Z,,,0.47,,12,2024.5,timeout,,,0.53,,0.53,,,6,,,,,,,-3,,,,,0.47,true,460180,460164.58,458172.86,458173,458173.26,460197.76,,97,
timeout,canvas.Screen,0_4_1_3,2022-07-13T16:46:09.164Z,,,,,12,NaN,skipped,,,0.53,,,,,,,,,,,,,,,,,0.47,true,460182,460164.58,,460182,,460197.76,,,
ITI,canvas.Screen,0_4_1_4,2022-07-13T16:46:09.687Z,,,,,12,549,timeout,,,0.53,,,,,,,,,,,,,,,,,0.47,true,460705,460681.24,460164.58,460182,460197.76,460746.76,,,
trial,flow.Sequence,0_4_1,2022-07-13T16:46:09.687Z,,,,,12,4617.320000000007,completion,,,0.53,,,,,,,,,,,,,,,,,0.47,true,460706,460681.24,456047.52,456063,456063.92,460746.76,,,
fixation,canvas.Screen,0_4_2_0,2022-07-13T16:46:10.229Z,,,,,9,517.7000000000116,timeout,,,0.485,,,,,,,,,,,,,,,,,0.53,true,461246,461231.28,460681.24,460706,460746.76,461264.46,,,
stimulus,canvas.Screen,0_4_2_1,2022-07-13T16:46:11.939Z,,,,,9,1673.539999999979,response,,0.53,0.485,,,https://raw.githubusercontent.com/carero2/loss-perception/main/png/0.53blue1yellowb%3D1w%3D100v%3D55.png,https://raw.githubusercontent.com/carero2/loss-perception/main/png/0.485blue1yellowb%3D1w%3D100v%3D55.png,,,,,,,,,true,j,keypress(j),0.485,0.53,true,462958,462938,461231.28,461247,461264.46,462960.8,,,
choice,canvas.Screen,0_4_2_2,2022-07-13T16:46:13.946Z,,,0.485,,9,2020.280000000028,timeout,,,0.485,,0.53,,,3,,,,,,,0,,,,,0.53,true,464964,464947.82,462960.42,462960,462960.8,464981.08,,100,
timeout,canvas.Screen,0_4_2_3,2022-07-13T16:46:13.947Z,,,,,9,NaN,skipped,,,0.485,,,,,,,,,,,,,,,,,0.53,true,464966,464947.82,,464966,,464981.08,,,
ITI,canvas.Screen,0_4_2_4,2022-07-13T16:46:14.460Z,,,,,9,499.4400000000023,timeout,,,0.485,,,,,,,,,,,,,,,,,0.53,true,465478,465463.36,464947.82,464966,464981.08,465480.52,,,
trial,flow.Sequence,0_4_2,2022-07-13T16:46:14.460Z,,,,,9,4716.599999999977,completion,,,0.485,,,,,,,,,,,,,,,,,0.53,true,465479,465463.36,460681.24,460706,460746.76,465480.52,,,
fixation,canvas.Screen,0_4_3_0,2022-07-13T16:46:14.961Z,,,,,6,533.3399999999674,timeout,,,0.515,,,,,,,,,,,,,,,,,0.485,true,465980,465964.5,465463.36,465479,465480.52,466013.86,,,
stimulus,canvas.Screen,0_4_3_1,2022-07-13T16:46:16.766Z,,,,,6,1752.140000000014,response,,0.485,0.515,,,https://raw.githubusercontent.com/carero2/loss-perception/main/png/0.485blue1yellowb%3D1w%3D100v%3D73.png,https://raw.githubusercontent.com/carero2/loss-perception/main/png/0.515blue1yellowb%3D1w%3D100v%3D73.png,,,,,,,,,true,f,keypress(f),0.515,0.485,true,467784,467766,465964.5,465980,466013.86,467863.42,,,
choice,canvas.Screen,0_4_3_2,2022-07-13T16:46:18.846Z,,,0.485,,6,2017.2600000000093,timeout,,,0.515,,0.515,,,3,,,,,,,3,,,,,0.485,true,469864,469847.76,467787.14,467787,467863.42,469880.68,,103,
timeout,canvas.Screen,0_4_3_3,2022-07-13T16:46:18.847Z,,,,,6,NaN,skipped,,,0.515,,,,,,,,,,,,,,,,,0.485,true,469865,469847.76,,469865,,469880.68,,,
ITI,canvas.Screen,0_4_3_4,2022-07-13T16:46:19.362Z,,,,,6,500.29999999998836,timeout,,,0.515,,,,,,,,,,,,,,,,,0.485,true,470381,470364.44,469847.76,469865,469880.68,470380.98,,,
trial,flow.Sequence,0_4_3,2022-07-13T16:46:19.363Z,,,,,6,4883.919999999984,completion,,,0.515,,,,,,,,,,,,,,,,,0.485,true,470381,470364.44,465463.36,465479,465480.52,470380.98,,,
fixation,canvas.Screen,0_4_4_0,2022-07-13T16:46:19.862Z,,,,,6,515.640000000014,timeout,,,0.485,,,,,,,,,,,,,,,,,0.455,false,470880,470864.42,470364.44,470381,470380.98,470896.62,,,
stimulus,canvas.Screen,0_4_4_1,2022-07-13T16:46:20.911Z,,,,,6,1012.3800000000047,response,,0.485,0.485,,,https://raw.githubusercontent.com/carero2/loss-perception/main/png/0.485blue1yellowb%3D1w%3D100v%3D71.png,https://raw.githubusercontent.com/carero2/loss-perception/main/png/0.455blue1yellowb%3D1w%3D100v%3D71.png,,,,,,,,,true,j,keypress(j),0.455,0.455,false,471929,471909,470864.42,470881,470896.62,471932.36,,,
choice,canvas.Screen,0_4_4_2,2022-07-13T16:46:22.912Z,,,0.455,,6,1997.6199999999953,timeout,,,0.485,,0.485,,,9,,,,,,,12,,,,,0.455,false,473930,473914.38,471931.96,471932,471932.36,473929.98,,112,
timeout,canvas.Screen,0_4_4_3,2022-07-13T16:46:22.913Z,,,,,6,NaN,skipped,,,0.485,,,,,,,,,,,,,,,,,0.455,false,473932,473914.38,,473932,,473929.98,,,
ITI,canvas.Screen,0_4_4_4,2022-07-13T16:46:23.412Z,,,,,6,500.78000000002794,timeout,,,0.485,,,,,,,,,,,,,,,,,0.455,false,474430,474414.4,473914.38,473932,473929.98,474430.76,,,
trial,flow.Sequence,0_4_4,2022-07-13T16:46:23.412Z,,,,,6,4033.420000000042,completion,,,0.485,,,,,,,,,,,,,,,,,0.455,false,474430,474414.4,470364.44,470381,470380.98,474430.76,,,
fixation,canvas.Screen,0_4_5_0,2022-07-13T16:46:23.911Z,,,,,6,516.8399999999674,timeout,,,0.545,,,,,,,,,,,,,,,,,0.515,true,474929,474913.76,474414.4,474430,474430.76,474947.6,,,
stimulus,canvas.Screen,0_4_5_1,2022-07-13T16:46:25.136Z,,,,,6,1186.4000000000233,response,,0.515,0.545,,,https://raw.githubusercontent.com/carero2/loss-perception/main/png/0.515blue1yellowb%3D1w%3D100v%3D78.png,https://raw.githubusercontent.com/carero2/loss-perception/main/png/0.545blue1yellowb%3D1w%3D100v%3D78.png,,,,,,,,,true,f,keypress(f),0.545,0.515,true,476154,476134,474913.76,474929,474947.6,476156.84,,,
choice,canvas.Screen,0_4_5_2,2022-07-13T16:46:27.145Z,,,0.515,,6,2007.3799999999464,timeout,,,0.545,,0.545,,,-3,,,,,,,9,,,,,0.515,true,478163,478147.12,476156.4,476157,476156.84,478164.22,,109,
timeout,canvas.Screen,0_4_5_3,2022-07-13T16:46:27.146Z,,,,,6,NaN,skipped,,,0.545,,,,,,,,,,,,,,,,,0.515,true,478164,478147.12,,478164,,478164.22,,,
ITI,canvas.Screen,0_4_5_4,2022-07-13T16:46:27.645Z,,,,,6,499.4000000000233,timeout,,,0.545,,,,,,,,,,,,,,,,,0.515,true,478663,478647.14,478147.12,478164,478164.22,478663.62,,,
trial,flow.Sequence,0_4_5,2022-07-13T16:46:27.645Z,,,,,6,4216.380000000005,completion,,,0.545,,,,,,,,,,,,,,,,,0.515,true,478664,478647.14,474414.4,474430,474430.76,478663.62,,,
fixation,canvas.Screen,0_4_6_0,2022-07-13T16:46:28.145Z,,,,,6,516.640000000014,timeout,,,0.515,,,,,,,,,,,,,,,,,0.485,false,479163,479147.64,478647.14,478664,478663.62,479180.26,,,
stimulus,canvas.Screen,0_4_6_1,2022-07-13T16:46:30.325Z,,,,,6,2143.7399999999907,response,,0.515,0.515,,,https://raw.githubusercontent.com/carero2/loss-perception/main/png/0.515blue1yellowb%3D1w%3D100v%3D46.png,https://raw.githubusercontent.com/carero2/loss-perception/main/png/0.485blue1yellowb%3D1w%3D100v%3D46.png,,,,,,,,,true,j,keypress(j),0.485,0.485,false,481343,481324,479147.64,479163,479180.26,481345.6,,,
choice,canvas.Screen,0_4_6_2,2022-07-13T16:46:32.328Z,,,0.485,,6,2017.640000000014,timeout,,,0.515,,0.515,,,3,,,,,,,12,,,,,0.485,false,483347,483330.8,481345.14,481346,481345.6,483363.24,,112,
timeout,canvas.Screen,0_4_6_3,2022-07-13T16:46:32.329Z,,,,,6,NaN,skipped,,,0.515,,,,,,,,,,,,,,,,,0.485,false,483348,483330.8,,483348,,483363.24,,,
ITI,canvas.Screen,0_4_6_4,2022-07-13T16:46:32.845Z,,,,,6,499.9199999999837,timeout,,,0.515,,,,,,,,,,,,,,,,,0.485,false,483863,483847.62,483330.8,483348,483363.24,483863.16,,,
trial,flow.Sequence,0_4_6,2022-07-13T16:46:32.846Z,,,,,6,5184,completion,,,0.515,,,,,,,,,,,,,,,,,0.485,false,483864,483847.62,478647.14,478664,478663.62,483863.16,,,
fixation,canvas.Screen,0_4_7_0,2022-07-13T16:46:33.345Z,,,,,6,517.640000000014,timeout,,,0.545,,,,,,,,,,,,,,,,,0.515,true,484363,484346.84,483847.62,483865,483863.16,484380.8,,,
stimulus,canvas.Screen,0_4_7_1,2022-07-13T16:46:34.137Z,,,,,6,755.2000000000116,response,,0.515,0.545,,,https://raw.githubusercontent.com/carero2/loss-perception/main/png/0.515blue1yellowb%3D1w%3D100v%3D59.png,https://raw.githubusercontent.com/carero2/loss-perception/main/png/0.545blue1yellowb%3D1w%3D100v%3D59.png,,,,,,,,,true,f,keypress(f),0.545,0.515,true,485155,485136,484346.84,484363,484380.8,485160.58,,,
choice,canvas.Screen,0_4_7_2,2022-07-13T16:46:36.145Z,,,0.515,,6,2002.719999999972,timeout,,,0.545,,0.545,,,-3,,,,,,,9,,,,,0.515,true,487163,487147.18,485160.16,485160,485160.58,487163.3,,109,
timeout,canvas.Screen,0_4_7_3,2022-07-13T16:46:36.147Z,,,,,6,NaN,skipped,,,0.545,,,,,,,,,,,,,,,,,0.515,true,487164,487147.18,,487164,,487163.3,,,
ITI,canvas.Screen,0_4_7_4,2022-07-13T16:46:36.644Z,,,,,6,499.9199999999837,timeout,,,0.545,,,,,,,,,,,,,,,,,0.515,true,487662,487646.98,487147.18,487165,487163.3,487663.22,,,
trial,flow.Sequence,0_4_7,2022-07-13T16:46:36.645Z,,,,,6,3783.820000000007,completion,,,0.545,,,,,,,,,,,,,,,,,0.515,true,487663,487646.98,483847.62,483865,483863.16,487663.22,,,
fixation,canvas.Screen,0_4_8_0,2022-07-13T16:46:37.145Z,,,,,18,517.5200000000186,timeout,,,0.545,,,,,,,,,,,,,,,,,0.455,true,488163,488147.52,487646.98,487663,487663.22,488180.74,,,
stimulus,canvas.Screen,0_4_8_1,2022-07-13T16:46:38.199Z,,,,,18,1017.2600000000093,response,,0.455,0.545,,,https://raw.githubusercontent.com/carero2/loss-perception/main/png/0.455blue1yellowb%3D1w%3D100v%3D10.png,https://raw.githubusercontent.com/carero2/loss-perception/main/png/0.545blue1yellowb%3D1w%3D100v%3D10.png,,,,,,,,,true,f,keypress(f),0.545,0.455,true,489217,489198,488147.52,488163,488180.74,489221.14,,,
choice,canvas.Screen,0_4_8_2,2022-07-13T16:46:40.212Z,,,0.455,,18,2009.579999999958,timeout,,,0.545,,0.545,,,9,,,,,,,18,,,,,0.455,true,491230,491214.14,489220.8,489221,489221.14,491230.72,,118,
timeout,canvas.Screen,0_4_8_3,2022-07-13T16:46:40.214Z,,,,,18,NaN,skipped,,,0.545,,,,,,,,,,,,,,,,,0.455,true,491232,491214.14,,491232,,491230.72,,,
ITI,canvas.Screen,0_4_8_4,2022-07-13T16:46:40.711Z,,,,,18,499.9400000000023,timeout,,,0.545,,,,,,,,,,,,,,,,,0.455,true,491729,491713.36,491214.14,491232,491230.72,491730.66,,,
trial,flow.Sequence,0_4_8,2022-07-13T16:46:40.711Z,,,,,18,4050.140000000014,completion,,,0.545,,,,,,,,,,,,,,,,,0.455,true,491730,491713.36,487646.98,487663,487663.22,491730.66,,,
fixation,canvas.Screen,0_4_9_0,2022-07-13T16:46:41.211Z,,,,,12,516.6200000000536,timeout,,,0.53,,,,,,,,,,,,,,,,,0.47,false,492229,492214.14,491713.36,491730,491730.66,492247.28,,,
stimulus,canvas.Screen,0_4_9_1,2022-07-13T16:46:42.222Z,,,,,12,973.7199999999721,response,,0.53,0.53,,,https://raw.githubusercontent.com/carero2/loss-perception/main/png/0.53blue1yellowb%3D1w%3D100v%3D96.png,https://raw.githubusercontent.com/carero2/loss-perception/main/png/0.47blue1yellowb%3D1w%3D100v%3D96.png,,,,,,,,,true,j,keypress(j),0.47,0.47,false,493240,493221,492214.14,492229,492247.28,493242.76,,,
choice,canvas.Screen,0_4_9_2,2022-07-13T16:46:44.230Z,,,0.47,,12,2020.219999999972,timeout,,,0.53,,0.53,,,6,,,,,,,24,,,,,0.47,false,495248,495230.76,493242.38,493242,493242.76,495262.98,,124,
timeout,canvas.Screen,0_4_9_3,2022-07-13T16:46:44.231Z,,,,,12,NaN,skipped,,,0.53,,,,,,,,,,,,,,,,,0.47,false,495249,495230.76,,495249,,495262.98,,,
ITI,canvas.Screen,0_4_9_4,2022-07-13T16:46:44.744Z,,,,,12,500.3400000000256,timeout,,,0.53,,,,,,,,,,,,,,,,,0.47,false,495762,495747.4,495230.76,495249,495262.98,495763.32,,,
trial,flow.Sequence,0_4_9,2022-07-13T16:46:44.745Z,,,,,12,4016.740000000049,completion,,,0.53,,,,,,,,,,,,,,,,,0.47,false,495762,495747.4,491713.36,491730,491730.66,495763.32,,,
fixation,canvas.Screen,0_4_10_0,2022-07-13T16:46:45.244Z,,,,,6,516.9400000000023,timeout,,,0.485,,,,,,,,,,,,,,,,,0.455,false,496263,496247.1,495747.4,495763,495763.32,496280.26,,,
stimulus,canvas.Screen,0_4_10_1,2022-07-13T16:46:46.438Z,,,,,6,1155.7399999999907,response,,0.485,0.485,,,https://raw.githubusercontent.com/carero2/loss-perception/main/png/0.485blue1yellowb%3D1w%3D100v%3D58.png,https://raw.githubusercontent.com/carero2/loss-perception/main/png/0.455blue1yellowb%3D1w%3D100v%3D58.png,,,,,,,,,true,j,keypress(j),0.455,0.455,false,497456,497436,496247.1,496263,496280.26,497459.26,,,
choice,canvas.Screen,0_4_10_2,2022-07-13T16:46:48.445Z,,,0.455,,6,2003.6599999999744,timeout,,,0.485,,0.485,,,9,,,,,,,33,,,,,0.455,false,499463,499447.36,497458.86,497459,497459.26,499462.92,,133,
timeout,canvas.Screen,0_4_10_3,2022-07-13T16:46:48.446Z,,,,,6,NaN,skipped,,,0.485,,,,,,,,,,,,,,,,,0.455,false,499464,499447.36,,499464,,499462.92,,,
ITI,canvas.Screen,0_4_10_4,2022-07-13T16:46:48.944Z,,,,,6,500.0599999999977,timeout,,,0.485,,,,,,,,,,,,,,,,,0.455,false,499962,499947,499447.36,499464,499462.92,499962.98,,,
trial,flow.Sequence,0_4_10,2022-07-13T16:46:48.945Z,,,,,6,4183.679999999993,completion,,,0.485,,,,,,,,,,,,,,,,,0.455,false,499962,499947,495747.4,495762,495763.32,499962.98,,,
fixation,canvas.Screen,0_4_11_0,2022-07-13T16:46:49.445Z,,,,,9,517.2000000000116,timeout,,,0.485,,,,,,,,,,,,,,,,,0.53,false,500463,500447.02,499947,499963,499962.98,500480.18,,,
stimulus,canvas.Screen,0_4_11_1,2022-07-13T16:46:51.152Z,,,,,9,1671.820000000007,response,,0.485,0.485,,,https://raw.githubusercontent.com/carero2/loss-perception/main/png/0.485blue1yellowb%3D1w%3D100v%3D26.png,https://raw.githubusercontent.com/carero2/loss-perception/main/png/0.53blue1yellowb%3D1w%3D100v%3D26.png,,,,,,,,,true,f,keypress(f),0.53,0.53,false,502171,502152,500447.02,500463,500480.18,502173.54,,,
choice,canvas.Screen,0_4_11_2,2022-07-13T16:46:53.162Z,,,0.485,,9,2005.960000000021,timeout,,,0.485,,0.53,,,3,,,,,,,36,,,,,0.53,false,504180,504163.96,502173.16,502174,502173.54,504179.5,,136,
timeout,canvas.Screen,0_4_11_3,2022-07-13T16:46:53.163Z,,,,,9,NaN,skipped,,,0.485,,,,,,,,,,,,,,,,,0.53,false,504181,504163.96,,504181,,504179.5,,,
ITI,canvas.Screen,0_4_11_4,2022-07-13T16:46:53.661Z,,,,,9,501.0200000000186,timeout,,,0.485,,,,,,,,,,,,,,,,,0.53,false,504679,504663.96,504163.96,504181,504179.5,504680.52,,,
trial,flow.Sequence,0_4_11,2022-07-13T16:46:53.661Z,,,,,9,4700.98000000004,completion,,,0.485,,,,,,,,,,,,,,,,,0.53,false,504679,504663.96,499947,499963,499962.98,504680.52,,,
fixation,canvas.Screen,0_4_12_0,2022-07-13T16:46:54.161Z,,,,,12,516.6599999999744,timeout,,,0.53,,,,,,,,,,,,,,,,,0.47,false,505179,505163.52,504663.96,504680,504680.52,505197.18,,,
stimulus,canvas.Screen,0_4_12_1,2022-07-13T16:46:55.157Z,,,,,12,956.820000000007,response,,0.53,0.53,,,https://raw.githubusercontent.com/carero2/loss-perception/main/png/0.53blue1yellowb%3D1w%3D100v%3D82.png,https://raw.githubusercontent.com/carero2/loss-perception/main/png/0.47blue1yellowb%3D1w%3D100v%3D82.png,,,,,,,,,true,j,keypress(j),0.47,0.47,false,506175,506154,505163.52,505179,505197.18,506176.88,,,
choice,canvas.Screen,0_4_12_2,2022-07-13T16:46:57.162Z,,,0.47,,12,2003.5800000000163,timeout,,,0.53,,0.53,,,6,,,,,,,42,,,,,0.47,false,508180,508163.96,506176.48,506177,506176.88,508180.46,,142,
timeout,canvas.Screen,0_4_12_3,2022-07-13T16:46:57.163Z,,,,,12,NaN,skipped,,,0.53,,,,,,,,,,,,,,,,,0.47,false,508181,508163.96,,508181,,508180.46,,,
ITI,canvas.Screen,0_4_12_4,2022-07-13T16:46:57.662Z,,,,,12,499.8399999999674,timeout,,,0.53,,,,,,,,,,,,,,,,,0.47,false,508680,508663.9,508163.96,508181,508180.46,508680.3,,,
trial,flow.Sequence,0_4_12,2022-07-13T16:46:57.662Z,,,,,12,3983.3800000000047,completion,,,0.53,,,,,,,,,,,,,,,,,0.47,false,508680,508663.9,504663.96,504680,504680.52,508680.3,,,
fixation,canvas.Screen,0_4_13_0,2022-07-13T16:46:58.162Z,,,,,6,516.820000000007,timeout,,,0.545,,,,,,,,,,,,,,,,,0.515,false,509179,509163.2,508663.9,508680,508680.3,509197.12,,,
stimulus,canvas.Screen,0_4_13_1,2022-07-13T16:46:58.941Z,,,,,6,742.8800000000047,response,,0.545,0.545,,,https://raw.githubusercontent.com/carero2/loss-perception/main/png/0.545blue1yellowb%3D1w%3D100v%3D49.png,https://raw.githubusercontent.com/carero2/loss-perception/main/png/0.515blue1yellowb%3D1w%3D100v%3D49.png,,,,,,,,,true,j,keypress(j),0.515,0.515,false,509959,509940,509163.2,509179,509197.12,509961.86,,,
choice,canvas.Screen,0_4_13_2,2022-07-13T16:47:00.944Z,,,0.515,,6,2001.8800000000047,timeout,,,0.545,,0.545,,,-3,,,,,,,39,,,,,0.515,false,511961,511946.68,509961.46,509961,509961.86,511963.74,,139,
timeout,canvas.Screen,0_4_13_3,2022-07-13T16:47:00.945Z,,,,,6,NaN,skipped,,,0.545,,,,,,,,,,,,,,,,,0.515,false,511962,511946.68,,511962,,511963.74,,,
ITI,canvas.Screen,0_4_13_4,2022-07-13T16:47:01.444Z,,,,,6,499.4199999999837,timeout,,,0.545,,,,,,,,,,,,,,,,,0.515,false,512462,512446.06,511946.68,511963,511963.74,512463.16,,,
trial,flow.Sequence,0_4_13,2022-07-13T16:47:01.444Z,,,,,6,3765.7600000000093,completion,,,0.545,,,,,,,,,,,,,,,,,0.515,false,512462,512446.06,508663.9,508680,508680.3,512463.16,,,
fixation,canvas.Screen,0_4_14_0,2022-07-13T16:47:01.945Z,,,,,9,516.640000000014,timeout,,,0.485,,,,,,,,,,,,,,,,,0.53,true,512963,512947.18,512446.06,512462,512463.16,512979.8,,,
stimulus,canvas.Screen,0_4_14_1,2022-07-13T16:47:02.646Z,,,,,9,665.2000000000116,response,,0.53,0.485,,,https://raw.githubusercontent.com/carero2/loss-perception/main/png/0.53blue1yellowb%3D1w%3D100v%3D25.png,https://raw.githubusercontent.com/carero2/loss-perception/main/png/0.485blue1yellowb%3D1w%3D100v%3D25.png,,,,,,,,,true,j,keypress(j),0.485,0.53,true,513664,513645,512947.18,512963,512979.8,513667.28,,,
choice,canvas.Screen,0_4_14_2,2022-07-13T16:47:04.646Z,,,0.485,,9,2013.079999999958,timeout,,,0.485,,0.53,,,3,,,,,,,42,,,,,0.53,true,515664,515647.14,513666.98,513667,513667.28,515680.36,,142,
timeout,canvas.Screen,0_4_14_3,2022-07-13T16:47:04.649Z,,,,,9,NaN,skipped,,,0.485,,,,,,,,,,,,,,,,,0.53,true,515667,515647.14,,515667,,515680.36,,,
ITI,canvas.Screen,0_4_14_4,2022-07-13T16:47:05.161Z,,,,,9,499.96000000002095,timeout,,,0.485,,,,,,,,,,,,,,,,,0.53,true,516179,516163.8,515647.14,515667,515680.36,516180.32,,,
trial,flow.Sequence,0_4_14,2022-07-13T16:47:05.162Z,,,,,9,3700.640000000014,completion,,,0.485,,,,,,,,,,,,,,,,,0.53,true,516179,516163.8,512446.06,512462,512463.16,516180.32,,,
fixation,canvas.Screen,0_4_15_0,2022-07-13T16:47:05.661Z,,,,,18,516.0200000000186,timeout,,,0.545,,,,,,,,,,,,,,,,,0.455,false,516678,516663.22,516163.8,516179,516180.32,516696.34,,,
stimulus,canvas.Screen,0_4_15_1,2022-07-13T16:47:06.572Z,,,,,18,873.6599999999744,response,,0.545,0.545,,,https://raw.githubusercontent.com/carero2/loss-perception/main/png/0.545blue1yellowb%3D1w%3D100v%3D3.png,https://raw.githubusercontent.com/carero2/loss-perception/main/png/0.455blue1yellowb%3D1w%3D100v%3D3.png,,,,,,,,,true,j,keypress(j),0.455,0.455,false,517590,517570,516663.22,516679,516696.34,517594.26,,,
choice,canvas.Screen,0_4_15_2,2022-07-13T16:47:08.578Z,,,0.455,,18,2002.719999999972,timeout,,,0.545,,0.545,,,9,,,,,,,51,,,,,0.455,false,519596,519580.22,517593.88,517593,517594.26,519596.98,,151,
timeout,canvas.Screen,0_4_15_3,2022-07-13T16:47:08.579Z,,,,,18,NaN,skipped,,,0.545,,,,,,,,,,,,,,,,,0.455,false,519597,519580.22,,519597,,519596.98,,,
ITI,canvas.Screen,0_4_15_4,2022-07-13T16:47:09.077Z,,,,,18,499.7600000000093,timeout,,,0.545,,,,,,,,,,,,,,,,,0.455,false,520095,520079.48,519580.22,519598,519596.98,520096.74,,,
trial,flow.Sequence,0_4_15,2022-07-13T16:47:09.077Z,,,,,18,3899.1599999999744,completion,,,0.545,,,,,,,,,,,,,,,,,0.455,false,520095,520079.48,516163.8,516179,516180.32,520096.74,,,
fixation,canvas.Screen,0_4_16_0,2022-07-13T16:47:09.579Z,,,,,6,516.679999999993,timeout,,,0.515,,,,,,,,,,,,,,,,,0.485,true,520597,520580.4,520079.48,520095,520096.74,520613.42,,,
stimulus,canvas.Screen,0_4_16_1,2022-07-13T16:47:10.171Z,,,,,6,555.5800000000163,response,,0.485,0.515,,,https://raw.githubusercontent.com/carero2/loss-perception/main/png/0.485blue1yellowb%3D1w%3D100v%3D3.png,https://raw.githubusercontent.com/carero2/loss-perception/main/png/0.515blue1yellowb%3D1w%3D100v%3D3.png,,,,,,,,,true,f,keypress(f),0.515,0.485,true,521189,521169,520580.4,520597,520613.42,521191.92,,,
choice,canvas.Screen,0_4_16_2,2022-07-13T16:47:12.178Z,,,0.485,,6,2004.679999999993,timeout,,,0.515,,0.515,,,3,,,,,,,54,,,,,0.485,true,523196,523179.34,521191.52,521192,521191.92,523196.6,,154,
timeout,canvas.Screen,0_4_16_3,2022-07-13T16:47:12.180Z,,,,,6,NaN,skipped,,,0.515,,,,,,,,,,,,,,,,,0.485,true,523198,523179.34,,523198,,523196.6,,,
ITI,canvas.Screen,0_4_16_4,2022-07-13T16:47:12.679Z,,,,,6,499.3400000000256,timeout,,,0.515,,,,,,,,,,,,,,,,,0.485,true,523696,523680.34,523179.34,523198,523196.6,523695.94,,,
trial,flow.Sequence,0_4_16,2022-07-13T16:47:12.679Z,,,,,6,3583.600000000035,completion,,,0.515,,,,,,,,,,,,,,,,,0.485,true,523696,523680.34,520079.48,520095,520096.74,523695.94,,,
fixation,canvas.Screen,0_4_17_0,2022-07-13T16:47:13.178Z,,,,,6,517.640000000014,timeout,,,0.485,,,,,,,,,,,,,,,,,0.455,true,524197,524180.34,523680.34,523697,523695.94,524213.58,,,
stimulus,canvas.Screen,0_4_17_1,2022-07-13T16:47:16.196Z,,,,,6,3016.039999999979,timeout,,0.455,0.485,,,https://raw.githubusercontent.com/carero2/loss-perception/main/png/0.455blue1yellowb%3D1w%3D100v%3D90.png,https://raw.githubusercontent.com/carero2/loss-perception/main/png/0.485blue1yellowb%3D1w%3D100v%3D90.png,,,,,,,,,,,,0.485,0.455,true,527214,527196.36,524180.34,524197,524213.58,527229.62,,,
choice,canvas.Screen,0_4_17_2,2022-07-13T16:47:16.198Z,,,0,,6,NaN,skipped,,,0.485,,0,,,0,,,,,,,54,false,timeout,,,0.455,true,527215,527196.36,,527215,,527229.62,,154,
timeout,canvas.Screen,0_4_17_3,2022-07-13T16:47:18.211Z,,,,,6,2000.5600000000559,timeout,,,0.485,,,,,,,,,,,,,,,,,0.455,true,529228,529213.58,527196.36,527216,527229.62,529230.18,,,
ITI,canvas.Screen,0_4_17_4,2022-07-13T16:47:18.712Z,,,,,6,499.89999999990687,timeout,,,0.485,,,,,,,,,,,,,,,,,0.455,true,529729,529712.84,529213.58,529229,529230.18,529730.08,,,
trial,flow.Sequence,0_4_17,2022-07-13T16:47:18.712Z,,,,,6,6016.899999999965,completion,,,0.485,,,,,,,,,,,,,,,,,0.455,true,529729,529712.84,523680.34,523697,523695.94,529730.08,,,
fixation,canvas.Screen,0_4_18_0,2022-07-13T16:47:19.212Z,,,,,6,516.6600000000326,timeout,,,0.515,,,,,,,,,,,,,,,,,0.485,true,530230,530213.6,529712.84,529729,529730.08,530246.74,,,
stimulus,canvas.Screen,0_4_18_1,2022-07-13T16:47:22.228Z,,,,,6,3015.6999999999534,timeout,,0.485,0.515,,,https://raw.githubusercontent.com/carero2/loss-perception/main/png/0.485blue1yellowb%3D1w%3D100v%3D86.png,https://raw.githubusercontent.com/carero2/loss-perception/main/png/0.515blue1yellowb%3D1w%3D100v%3D86.png,,,,,,,,,,,,0.515,0.485,true,533246,533229.58,530213.6,530230,530246.74,533262.44,,,
choice,canvas.Screen,0_4_18_2,2022-07-13T16:47:22.231Z,,,0,,6,NaN,skipped,,,0.515,,0,,,0,,,,,,,54,false,timeout,,,0.485,true,533249,533229.58,,533249,,533262.44,,154,
timeout,canvas.Screen,0_4_18_3,2022-07-13T16:47:24.245Z,,,,,6,2000.5400000000373,timeout,,,0.515,,,,,,,,,,,,,,,,,0.485,true,535262,535246.88,533229.58,533249,533262.44,535262.98,,,
ITI,canvas.Screen,0_4_18_4,2022-07-13T16:47:24.745Z,,,,,6,500.14000000001397,timeout,,,0.515,,,,,,,,,,,,,,,,,0.485,true,535762,535746.86,535246.88,535262,535262.98,535763.12,,,
trial,flow.Sequence,0_4_18,2022-07-13T16:47:24.745Z,,,,,6,6016.780000000028,completion,,,0.515,,,,,,,,,,,,,,,,,0.485,true,535763,535746.86,529712.84,529729,529730.08,535763.12,,,
fixation,canvas.Screen,0_4_19_0,2022-07-13T16:47:25.244Z,,,,,6,516.359999999986,timeout,,,0.545,,,,,,,,,,,,,,,,,0.515,true,536262,536246.4,535746.86,535763,535763.12,536279.48,,,
stimulus,canvas.Screen,0_4_19_1,2022-07-13T16:47:28.261Z,,,,,6,3017.219999999972,timeout,,0.515,0.545,,,https://raw.githubusercontent.com/carero2/loss-perception/main/png/0.515blue1yellowb%3D1w%3D100v%3D25.png,https://raw.githubusercontent.com/carero2/loss-perception/main/png/0.545blue1yellowb%3D1w%3D100v%3D25.png,,,,,,,,,,,,0.545,0.515,true,539278,539263.48,536246.4,536262,536279.48,539296.7,,,
choice,canvas.Screen,0_4_19_2,2022-07-13T16:47:28.263Z,,,0,,6,NaN,skipped,,,0.545,,0,,,0,,,,,,,54,false,timeout,,,0.515,true,539281,539263.48,,539281,,539296.7,,154,
timeout,canvas.Screen,0_4_19_3,2022-07-13T16:47:30.278Z,,,,,6,1999.8600000001024,timeout,,,0.545,,,,,,,,,,,,,,,,,0.515,true,541295,541279.3,539263.48,539282,539296.7,541296.56,,,
ITI,canvas.Screen,0_4_19_4,2022-07-13T16:47:30.778Z,,,,,6,499.2399999999907,timeout,,,0.545,,,,,,,,,,,,,,,,,0.515,true,541796,541780.12,541279.3,541295,541296.56,541795.8,,,
trial,flow.Sequence,0_4_19,2022-07-13T16:47:30.778Z,,,,,6,6017,completion,,,0.545,,,,,,,,,,,,,,,,,0.515,true,541796,541780.12,535746.86,535763,535763.12,541795.8,,,
fixation,canvas.Screen,0_4_20_0,2022-07-13T16:47:31.279Z,,,,,9,516.6599999999162,timeout,,,0.485,,,,,,,,,,,,,,,,,0.53,true,542296,542280.1,541780.12,541796,541795.8,542312.46,,,
stimulus,canvas.Screen,0_4_20_1,2022-07-13T16:47:34.294Z,,,,,9,3017.5,timeout,,0.53,0.485,,,https://raw.githubusercontent.com/carero2/loss-perception/main/png/0.53blue1yellowb%3D1w%3D100v%3D90.png,https://raw.githubusercontent.com/carero2/loss-perception/main/png/0.485blue1yellowb%3D1w%3D100v%3D90.png,,,,,,,,,,,,0.485,0.53,true,545312,545296.34,542280.1,542296,542312.46,545329.96,,,
choice,canvas.Screen,0_4_20_2,2022-07-13T16:47:34.296Z,,,0,,9,NaN,skipped,,,0.485,,0,,,0,,,,,,,54,false,timeout,,,0.53,true,545314,545296.34,,545313,,545329.96,,154,
timeout,canvas.Screen,0_4_20_3,2022-07-13T16:47:36.312Z,,,,,9,1999.9400000000605,timeout,,,0.485,,,,,,,,,,,,,,,,,0.53,true,547329,547313.38,545296.34,545314,545329.96,547329.9,,,
ITI,canvas.Screen,0_4_20_4,2022-07-13T16:47:36.812Z,,,,,9,499.4199999999255,timeout,,,0.485,,,,,,,,,,,,,,,,,0.53,true,547829,547812.8,547313.38,547329,547329.9,547829.32,,,
trial,flow.Sequence,0_4_20,2022-07-13T16:47:36.812Z,,,,,9,6017,completion,,,0.485,,,,,,,,,,,,,,,,,0.53,true,547829,547812.8,541780.12,541796,541795.8,547829.32,,,
fixation,canvas.Screen,0_4_21_0,2022-07-13T16:47:37.311Z,,,,,18,517.2600000000093,timeout,,,0.545,,,,,,,,,,,,,,,,,0.455,true,548329,548313.34,547812.8,547829,547829.32,548346.58,,,
stimulus,canvas.Screen,0_4_21_1,2022-07-13T16:47:40.329Z,,,,,18,3015.840000000084,timeout,,0.455,0.545,,,https://raw.githubusercontent.com/carero2/loss-perception/main/png/0.455blue1yellowb%3D1w%3D100v%3D19.png,https://raw.githubusercontent.com/carero2/loss-perception/main/png/0.545blue1yellowb%3D1w%3D100v%3D19.png,,,,,,,,,,,,0.545,0.455,true,551346,551329.96,548313.34,548329,548346.58,551362.42,,,
choice,canvas.Screen,0_4_21_2,2022-07-13T16:47:40.333Z,,,0,,18,NaN,skipped,,,0.545,,0,,,0,,,,,,,54,false,timeout,,,0.455,true,551351,551329.96,,551350,,551362.42,,154,
timeout,canvas.Screen,0_4_21_3,2022-07-13T16:47:42.353Z,,,,,18,2017.1999999999534,timeout,,,0.545,,,,,,,,,,,,,,,,,0.455,true,553370,553346.62,551329.96,551352,551362.42,553379.62,,,
ITI,canvas.Screen,0_4_21_4,2022-07-13T16:47:42.861Z,,,,,18,499.2399999999907,timeout,,,0.545,,,,,,,,,,,,,,,,,0.455,true,553879,553863.26,553346.62,553370,553379.62,553878.86,,,
trial,flow.Sequence,0_4_21,2022-07-13T16:47:42.862Z,,,,,18,6033.9400000000605,completion,,,0.545,,,,,,,,,,,,,,,,,0.455,true,553880,553863.26,547812.8,547829,547829.32,553878.86,,,
fixation,canvas.Screen,0_4_22_0,2022-07-13T16:47:43.362Z,,,,,6,516.640000000014,timeout,,,0.485,,,,,,,,,,,,,,,,,0.455,false,554379,554363.28,553863.26,553880,553878.86,554395.5,,,
stimulus,canvas.Screen,0_4_22_1,2022-07-13T16:47:44.674Z,,,,,6,1274.5,response,,0.485,0.485,,,https://raw.githubusercontent.com/carero2/loss-perception/main/png/0.485blue1yellowb%3D1w%3D100v%3D40.png,https://raw.githubusercontent.com/carero2/loss-perception/main/png/0.455blue1yellowb%3D1w%3D100v%3D40.png,,,,,,,,,true,j,keypress(j),0.455,0.455,false,555691,555670,554363.28,554380,554395.5,555694.34,,,
choice,canvas.Screen,0_4_22_2,2022-07-13T16:47:46.678Z,,,0.455,,6,2018.7200000000885,timeout,,,0.485,,0.485,,,9,,,,,,,63,,,,,0.455,false,557695,557678.76,555693.98,555694,555694.34,557713.06,,163,
timeout,canvas.Screen,0_4_22_3,2022-07-13T16:47:46.680Z,,,,,6,NaN,skipped,,,0.485,,,,,,,,,,,,,,,,,0.455,false,557697,557678.76,,557697,,557713.06,,,
ITI,canvas.Screen,0_4_22_4,2022-07-13T16:47:47.194Z,,,,,6,499.1799999999348,timeout,,,0.485,,,,,,,,,,,,,,,,,0.455,false,558212,558195.42,557678.76,557698,557713.06,558212.24,,,
trial,flow.Sequence,0_4_22,2022-07-13T16:47:47.194Z,,,,,6,4316.560000000056,completion,,,0.485,,,,,,,,,,,,,,,,,0.455,false,558212,558195.42,553863.26,553880,553878.86,558212.24,,,
fixation,canvas.Screen,0_4_23_0,2022-07-13T16:47:47.695Z,,,,,12,516.7399999999907,timeout,,,0.53,,,,,,,,,,,,,,,,,0.47,false,558712,558696.54,558195.42,558213,558212.24,558728.98,,,
stimulus,canvas.Screen,0_4_23_1,2022-07-13T16:47:48.343Z,,,,,12,611.0200000000186,response,,0.53,0.53,,,https://raw.githubusercontent.com/carero2/loss-perception/main/png/0.53blue1yellowb%3D1w%3D100v%3D3.png,https://raw.githubusercontent.com/carero2/loss-perception/main/png/0.47blue1yellowb%3D1w%3D100v%3D3.png,,,,,,,,,true,j,keypress(j),0.47,0.47,false,559360,559340,558696.54,558712,558728.98,559362.32,,,
choice,canvas.Screen,0_4_23_2,2022-07-13T16:47:50.345Z,,,0.47,,12,2016.6000000000931,timeout,,,0.53,,0.53,,,6,,,,,,,69,,,,,0.47,false,561362,561346.52,559361.98,559362,559362.32,561378.92,,169,
timeout,canvas.Screen,0_4_23_3,2022-07-13T16:47:50.346Z,,,,,12,NaN,skipped,,,0.53,,,,,,,,,,,,,,,,,0.47,false,561364,561346.52,,561364,,561378.92,,,
ITI,canvas.Screen,0_4_23_4,2022-07-13T16:47:50.862Z,,,,,12,500.79999999993015,timeout,,,0.53,,,,,,,,,,,,,,,,,0.47,false,561879,561863.14,561346.52,561364,561378.92,561879.72,,,
trial,flow.Sequence,0_4_23,2022-07-13T16:47:50.862Z,,,,,12,3650.9000000000233,completion,,,0.53,,,,,,,,,,,,,,,,,0.47,false,561880,561863.14,558195.42,558212,558212.24,561879.72,,,
pratice,flow.Loop,0_4,2022-07-13T16:47:50.863Z,,,,,,109747.48000000004,completion,,,,,,,,,,,,,,,,,,,,,,561880,561863.14,452115.3,452115,452115.66,561879.72,,,
show amount,html.Screen,0_5,2022-07-13T16:48:10.136Z,,,,,,19252.280000000028,response,,,,,,,,,,,,,,,,,Continue,click #Continue,,,,581153,581132,561863.14,561881,561879.72,581178.46,,,
first block,canvas.Screen,0_6,2022-07-13T16:48:16.149Z,,,,,,5965.540000000037,response,,,,,,,,,,,,,,,,,space,keypress(Space),,,,587166,587144,581151.8,581154,581178.46,587166.34,,,
fixation,canvas.Screen,0_7_0_0,2022-07-13T16:48:16.645Z,,,,,4,723.1199999999953,timeout,,,0.53,,,,,,,,,,,,,,,,,0.51,false,587662,587646.14,587165.96,587166,587166.34,587889.46,,,
stimulus,canvas.Screen,0_7_0_1,2022-07-13T16:48:19.462Z,,,,,4,2569.5400000000373,response,,0.53,0.53,,,https://raw.githubusercontent.com/carero2/loss-perception/main/png/0.53blue1yellowb%3D1w%3D100v%3D19.png,https://raw.githubusercontent.com/carero2/loss-perception/main/png/0.51blue1yellowb%3D1w%3D100v%3D19.png,,,,,,,,,true,j,keypress(j),0.51,0.51,false,590479,590459,587646.14,587889,587889.46,590483.08,,,
choice,canvas.Screen,0_7_0_2,2022-07-13T16:48:20.462Z,,,0.51,,4,996.2399999999907,timeout,,,0.53,,0.53,,,-2,-2,,,,,,,,,,,0.51,false,591478,591462.76,590482.72,590482,590483.08,591479.32,98,,
ITI,canvas.Screen,0_7_0_3,2022-07-13T16:48:20.961Z,,2255,,,4,499.9800000000978,timeout,,,0.53,,,,,,,,,,,,,,,,,0.51,false,591978,591962.56,591462.76,591478,591479.32,591979.3,,,
trial,flow.Sequence,0_7_0,2022-07-13T16:48:20.961Z,,,,,4,4796.2200000000885,completion,,,0.53,,,,,,,,,,,,,,,,,0.51,false,591978,591962.56,587165.96,587166,587166.34,591979.3,,,
fixation,canvas.Screen,0_7_1_0,2022-07-13T16:48:21.461Z,,,,,2,829,timeout,,,0.505,,,,,,,,,,,,,,,,,0.495,false,592478,592461.84,591962.56,591978,591979.3,592808.3,,,
stimulus,canvas.Screen,0_7_1_1,2022-07-13T16:48:25.343Z,,,,,2,3529.6999999999534,response,,0.505,0.505,,,https://raw.githubusercontent.com/carero2/loss-perception/main/png/0.505blue1yellowb%3D1w%3D100v%3D34.png,https://raw.githubusercontent.com/carero2/loss-perception/main/png/0.495blue1yellowb%3D1w%3D100v%3D34.png,,,,,,,,,true,f,keypress(f),0.495,0.495,false,596360,596338,592461.84,592808,592808.3,596362.86,,,
choice,canvas.Screen,0_7_1_2,2022-07-13T16:48:26.345Z,,,0.505,,2,998.859999999986,timeout,,,0.505,,0.495,,,-1,-3,,,,,,,,,,,0.495,false,597362,597346.02,596362.5,596362,596362.86,597361.72,97,,
ITI,canvas.Screen,0_7_1_3,2022-07-13T16:48:26.844Z,,2150,,,2,500.0999999999767,timeout,,,0.505,,,,,,,,,,,,,,,,,0.495,false,597860,597845.04,597346.02,597362,597361.72,597861.82,,,
trial,flow.Sequence,0_7_1,2022-07-13T16:48:26.844Z,,,,,2,5865.739999999991,completion,,,0.505,,,,,,,,,,,,,,,,,0.495,false,597861,597845.04,591962.56,591978,591979.3,597861.82,,,
fixation,canvas.Screen,0_7_2_0,2022-07-13T16:48:27.345Z,,,,,4,679.4600000000792,timeout,,,0.51,,,,,,,,,,,,,,,,,0.49,false,598362,598345.2,597845.04,597861,597861.82,598541.28,,,
stimulus,canvas.Screen,0_7_2_1,2022-07-13T16:48:47.004Z,,,,,4,19456.719999999972,response,,0.51,0.51,,,https://raw.githubusercontent.com/carero2/loss-perception/main/png/0.51blue1yellowb%3D1w%3D100v%3D9.png,https://raw.githubusercontent.com/carero2/loss-perception/main/png/0.49blue1yellowb%3D1w%3D100v%3D9.png,,,,,,,,,true,j,keypress(j),0.49,0.49,false,618020,617998,598345.2,598541,598541.28,618023.32,,,
choice,canvas.Screen,0_7_2_2,2022-07-13T16:48:48.087Z,,,0.49,,4,1155.0200000000186,timeout,,,0.51,,0.51,,,2,-1,,,,,,,,,,,0.49,false,619103,619012.32,618023.02,618023,618023.32,619178.34,99,,
ITI,canvas.Screen,0_7_2_3,2022-07-13T16:48:48.664Z,,2419,,,4,549.5600000000559,timeout,,,0.51,,,,,,,,,,,,,,,,,0.49,false,619681,619661.8,619012.32,619104,619178.34,619727.9,,,
trial,flow.Sequence,0_7_2,2022-07-13T16:48:48.665Z,,,,,4,21799.980000000098,completion,,,0.51,,,,,,,,,,,,,,,,,0.49,false,619681,619661.8,597845.04,597861,597861.82,619727.9,,,
fixation,canvas.Screen,0_7_3_0,2022-07-13T16:48:49.210Z,,,,,2,696.7600000000093,timeout,,,0.495,,,,,,,,,,,,,,,,,0.485,false,620226,620212.36,619661.8,619682,619727.9,620424.66,,,
stimulus,canvas.Screen,0_7_3_1,2022-07-13T16:48:52.897Z,,,,,2,3470.3399999999674,response,,0.495,0.495,,,https://raw.githubusercontent.com/carero2/loss-perception/main/png/0.495blue1yellowb%3D1w%3D100v%3D75.png,https://raw.githubusercontent.com/carero2/loss-perception/main/png/0.485blue1yellowb%3D1w%3D100v%3D75.png,,,,,,,,,true,j,keypress(j),0.485,0.485,false,623914,623895,620212.36,620425,620424.66,623916.68,,,
choice,canvas.Screen,0_7_3_2,2022-07-13T16:48:53.893Z,,,0.485,,2,994.9399999999441,timeout,,,0.495,,0.495,,,3,2,,,,,,,,,,,0.485,false,624910,624894.96,623916.3,623917,623916.68,624911.62,102,,
ITI,canvas.Screen,0_7_3_3,2022-07-13T16:48:54.394Z,,2991,,,2,500.5200000000186,timeout,,,0.495,,,,,,,,,,,,,,,,,0.485,false,625410,625395.62,624894.96,624910,624911.62,625412.14,,,
trial,flow.Sequence,0_7_3,2022-07-13T16:48:54.395Z,,,,,2,5667.719999999972,completion,,,0.495,,,,,,,,,,,,,,,,,0.485,false,625411,625395.62,619661.8,619681,619727.9,625412.14,,,
fixation,canvas.Screen,0_7_4_0,2022-07-13T16:48:54.893Z,,,,,2,681.6799999999348,timeout,,,0.515,,,,,,,,,,,,,,,,,0.505,true,625910,625895.62,625395.62,625412,625412.14,626093.82,,,
stimulus,canvas.Screen,0_7_4_1,2022-07-13T16:48:58.720Z,,,,,2,3623.180000000051,response,,0.505,0.515,,,https://raw.githubusercontent.com/carero2/loss-perception/main/png/0.505blue1yellowb%3D1w%3D100v%3D35.png,https://raw.githubusercontent.com/carero2/loss-perception/main/png/0.515blue1yellowb%3D1w%3D100v%3D35.png,,,,,,,,,true,j,keypress(j),0.515,0.505,true,629736,629717,625895.62,626094,626093.82,629740.66,,,
choice,canvas.Screen,0_7_4_2,2022-07-13T16:48:59.726Z,,,0.515,,2,1004.7799999999115,timeout,,,0.515,,0.505,,,-3,-1,,,,,,,,,,,0.505,true,630743,630728.36,629740.34,629740,629740.66,630745.44,99,,
ITI,canvas.Screen,0_7_4_3,2022-07-13T16:49:00.226Z,,2683,,,2,499.44000000006054,timeout,,,0.515,,,,,,,,,,,,,,,,,0.505,true,631243,631228.88,630728.36,630743,630745.44,631244.88,,,
trial,flow.Sequence,0_7_4,2022-07-13T16:49:00.226Z,,,,,2,5816.739999999991,completion,,,0.515,,,,,,,,,,,,,,,,,0.505,true,631243,631228.88,625395.62,625412,625412.14,631244.88,,,
fixation,canvas.Screen,0_7_5_0,2022-07-13T16:49:00.726Z,,,,,6,682.6800000000512,timeout,,,0.515,,,,,,,,,,,,,,,,,0.485,true,631743,631728.86,631228.88,631243,631244.88,631927.56,,,
stimulus,canvas.Screen,0_7_5_1,2022-07-13T16:49:01.986Z,,,,,6,1055.4399999999441,response,,0.485,0.515,,,https://raw.githubusercontent.com/carero2/loss-perception/main/png/0.485blue1yellowb%3D1w%3D100v%3D12.png,https://raw.githubusercontent.com/carero2/loss-perception/main/png/0.515blue1yellowb%3D1w%3D100v%3D12.png,,,,,,,,,true,f,keypress(f),0.515,0.485,true,633002,632983,631728.86,631928,631927.56,633005.62,,,
choice,canvas.Screen,0_7_5_2,2022-07-13T16:49:02.997Z,,,0.485,,6,1022.7600000000093,timeout,,,0.515,,0.515,,,3,2,,,,,,,,,,,0.485,true,634013,633995.5,633005.32,633006,633005.62,634028.38,102,,
ITI,canvas.Screen,0_7_5_3,2022-07-13T16:49:03.509Z,,2870,,,6,500.3399999999674,timeout,,,0.515,,,,,,,,,,,,,,,,,0.485,true,634526,634511.16,633995.5,634014,634028.38,634528.72,,,
trial,flow.Sequence,0_7_5,2022-07-13T16:49:03.509Z,,,,,6,3266.280000000028,completion,,,0.515,,,,,,,,,,,,,,,,,0.485,true,634527,634511.16,631228.88,631243,631244.88,634528.72,,,
fixation,canvas.Screen,0_7_6_0,2022-07-13T16:49:04.010Z,,,,,6,715.7600000000093,timeout,,,0.545,,,,,,,,,,,,,,,,,0.515,false,635027,635012.06,634511.16,634527,634528.72,635244.48,,,
stimulus,canvas.Screen,0_7_6_1,2022-07-13T16:49:05.754Z,,,,,6,1507.5200000000186,response,,0.545,0.545,,,https://raw.githubusercontent.com/carero2/loss-perception/main/png/0.545blue1yellowb%3D1w%3D100v%3D92.png,https://raw.githubusercontent.com/carero2/loss-perception/main/png/0.515blue1yellowb%3D1w%3D100v%3D92.png,,,,,,,,,true,j,keypress(j),0.515,0.515,false,636770,636752,635012.06,635235,635244.48,636778.7,,,
choice,canvas.Screen,0_7_6_2,2022-07-13T16:49:06.759Z,,,0.515,,6,999.6800000000512,timeout,,,0.545,,0.545,,,-3,-1,,,,,,,,,,,0.515,false,637775,637761.08,636773.38,636773,636778.7,637778.38,99,,
ITI,canvas.Screen,0_7_6_3,2022-07-13T16:49:07.260Z,,2627,,,6,499.2600000000093,timeout,,,0.545,,,,,,,,,,,,,,,,,0.515,false,638276,638262.12,637761.08,637776,637778.38,638277.64,,,
trial,flow.Sequence,0_7_6,2022-07-13T16:49:07.260Z,,,,,6,3733.4000000000233,completion,,,0.545,,,,,,,,,,,,,,,,,0.515,false,638276,638262.12,634511.16,634527,634528.72,638277.64,,,
fixation,canvas.Screen,0_7_7_0,2022-07-13T16:49:07.760Z,,,,,4,677.4799999999814,timeout,,,0.49,,,,,,,,,,,,,,,,,0.47,false,638776,638761.8,638262.12,638276,638277.64,638955.12,,,
stimulus,canvas.Screen,0_7_7_1,2022-07-13T16:49:08.798Z,,,,,4,841.8800000000047,response,,0.49,0.49,,,https://raw.githubusercontent.com/carero2/loss-perception/main/png/0.49blue1yellowb%3D1w%3D100v%3D91.png,https://raw.githubusercontent.com/carero2/loss-perception/main/png/0.47blue1yellowb%3D1w%3D100v%3D91.png,,,,,,,,,true,j,keypress(j),0.47,0.47,false,639815,639797,638761.8,638955,638955.12,639817.4,,,
choice,canvas.Screen,0_7_7_2,2022-07-13T16:49:09.792Z,,,0.47,,4,994.0799999999581,timeout,,,0.49,,0.49,,,6,5,,,,,,,,,,,0.47,false,640808,640794.34,639817.02,639817,639817.4,640811.48,105,,
ITI,canvas.Screen,0_7_7_3,2022-07-13T16:49:10.294Z,,2759,,,4,516.6800000000512,timeout,,,0.49,,,,,,,,,,,,,,,,,0.47,false,641310,641295.4,640794.34,640809,640811.48,641328.16,,,
trial,flow.Sequence,0_7_7,2022-07-13T16:49:10.294Z,,,,,4,3017.7600000000093,completion,,,0.49,,,,,,,,,,,,,,,,,0.47,false,641310,641295.4,638262.12,638276,638277.64,641328.16,,,
fixation,canvas.Screen,0_7_8_0,2022-07-13T16:49:10.810Z,,,,,6,678.2799999999115,timeout,,,0.485,,,,,,,,,,,,,,,,,0.455,false,641826,641812.04,641295.4,641310,641328.16,642006.44,,,
stimulus,canvas.Screen,0_7_8_1,2022-07-13T16:49:11.679Z,,,,,6,669.5600000000559,response,,0.485,0.485,,,https://raw.githubusercontent.com/carero2/loss-perception/main/png/0.485blue1yellowb%3D1w%3D100v%3D54.png,https://raw.githubusercontent.com/carero2/loss-perception/main/png/0.455blue1yellowb%3D1w%3D100v%3D54.png,,,,,,,,,true,j,keypress(j),0.455,0.455,false,642695,642676,641812.04,642007,642006.44,642697.2,,,
choice,canvas.Screen,0_7_8_2,2022-07-13T16:49:12.676Z,,,0.455,,6,997.2399999999907,timeout,,,0.485,,0.485,,,9,14,,,,,,,,,,,0.455,false,643692,643678.26,642696.88,642696,642697.2,643694.44,114,,
ITI,canvas.Screen,0_7_8_3,2022-07-13T16:49:13.176Z,,2416,,,6,500.8200000000652,timeout,,,0.485,,,,,,,,,,,,,,,,,0.455,false,644192,644177.76,643678.26,643692,643694.44,644195.26,,,
trial,flow.Sequence,0_7_8,2022-07-13T16:49:13.176Z,,,,,6,2849.5999999999767,completion,,,0.485,,,,,,,,,,,,,,,,,0.455,false,644192,644177.76,641295.4,641310,641328.16,644195.26,,,
fixation,canvas.Screen,0_7_9_0,2022-07-13T16:49:13.676Z,,,,,4,746.1199999999953,timeout,,,0.51,,,,,,,,,,,,,,,,,0.49,true,644693,644677.74,644177.76,644192,644195.26,644941.38,,,
stimulus,canvas.Screen,0_7_9_1,2022-07-13T16:49:16.474Z,,,,,4,2531.6199999999953,response,,0.49,0.51,,,https://raw.githubusercontent.com/carero2/loss-perception/main/png/0.49blue1yellowb%3D1w%3D100v%3D91.png,https://raw.githubusercontent.com/carero2/loss-perception/main/png/0.51blue1yellowb%3D1w%3D100v%3D91.png,,,,,,,,,true,f,keypress(f),0.51,0.49,true,647491,647473,644677.74,644941,644941.38,647496.54,,,
choice,canvas.Screen,0_7_9_2,2022-07-13T16:49:17.476Z,,,0.49,,4,1015.2600000000093,timeout,,,0.51,,0.51,,,2,16,,,,,,,,,,,0.49,true,648491,648477.62,647496.16,647496,647496.54,648511.8,116,,
ITI,canvas.Screen,0_7_9_3,2022-07-13T16:49:17.992Z,,2171,,,4,499.2399999999907,timeout,,,0.51,,,,,,,,,,,,,,,,,0.49,true,649008,648994.64,648477.62,648492,648511.8,649011.04,,,
trial,flow.Sequence,0_7_9,2022-07-13T16:49:17.992Z,,,,,4,4799.380000000005,completion,,,0.51,,,,,,,,,,,,,,,,,0.49,true,649009,648994.64,644177.76,644192,644195.26,649011.04,,,
fixation,canvas.Screen,0_7_10_0,2022-07-13T16:49:18.493Z,,,,,2,677.6799999999348,timeout,,,0.495,,,,,,,,,,,,,,,,,0.485,false,649509,649495.3,648994.64,649009,649011.04,649688.72,,,
stimulus,canvas.Screen,0_7_10_1,2022-07-13T16:49:20.565Z,,,,,2,1873.280000000028,response,,0.495,0.495,,,https://raw.githubusercontent.com/carero2/loss-perception/main/png/0.495blue1yellowb%3D1w%3D100v%3D58.png,https://raw.githubusercontent.com/carero2/loss-perception/main/png/0.485blue1yellowb%3D1w%3D100v%3D58.png,,,,,,,,,true,j,keypress(j),0.485,0.485,false,651580,651562,649495.3,649688,649688.72,651584,,,
choice,canvas.Screen,0_7_10_2,2022-07-13T16:49:21.559Z,,,0.485,,2,994.1800000000512,timeout,,,0.495,,0.495,,,3,19,,,,,,,,,,,0.485,false,652575,652560.86,651583.58,651583,651584,652578.18,119,,
ITI,canvas.Screen,0_7_10_3,2022-07-13T16:49:22.060Z,,2481,,,2,499.2599999998929,timeout,,,0.495,,,,,,,,,,,,,,,,,0.485,false,653076,653061.9,652560.86,652575,652578.18,653077.44,,,
trial,flow.Sequence,0_7_10,2022-07-13T16:49:22.060Z,,,,,2,4050.859999999986,completion,,,0.495,,,,,,,,,,,,,,,,,0.485,false,653076,653061.9,648994.64,649009,649011.04,653077.44,,,
fixation,canvas.Screen,0_7_11_0,2022-07-13T16:49:22.560Z,,,,,4,685.3800000000047,timeout,,,0.53,,,,,,,,,,,,,,,,,0.51,false,653576,653561.9,653061.9,653076,653077.44,653762.82,,,
stimulus,canvas.Screen,0_7_11_1,2022-07-13T16:49:25.458Z,,,,,4,2692.180000000051,response,,0.53,0.53,,,https://raw.githubusercontent.com/carero2/loss-perception/main/png/0.53blue1yellowb%3D1w%3D100v%3D69.png,https://raw.githubusercontent.com/carero2/loss-perception/main/png/0.51blue1yellowb%3D1w%3D100v%3D69.png,,,,,,,,,true,j,keypress(j),0.51,0.51,false,656475,656455,653561.9,653763,653762.82,656476.96,,,
choice,canvas.Screen,0_7_11_2,2022-07-13T16:49:26.460Z,,,0.51,,4,1000.6600000000326,timeout,,,0.53,,0.53,,,-2,17,,,,,,,,,,,0.51,false,657476,657461.82,656476.62,656477,656476.96,657477.62,117,,
ITI,canvas.Screen,0_7_11_3,2022-07-13T16:49:26.959Z,,2417,,,4,500.78000000002794,timeout,,,0.53,,,,,,,,,,,,,,,,,0.51,false,657975,657961.84,657461.82,657476,657477.62,657978.4,,,
trial,flow.Sequence,0_7_11,2022-07-13T16:49:26.959Z,,,,,4,4884.400000000023,completion,,,0.53,,,,,,,,,,,,,,,,,0.51,false,657976,657961.84,653061.9,653076,653077.44,657978.4,,,
fixation,canvas.Screen,0_7_12_0,2022-07-13T16:49:27.460Z,,,,,4,692.0599999999395,timeout,,,0.49,,,,,,,,,,,,,,,,,0.47,false,658476,658461.62,657961.84,657976,657978.4,658670.46,,,
stimulus,canvas.Screen,0_7_12_1,2022-07-13T16:49:28.568Z,,,,,4,895.5400000000373,response,,0.49,0.49,,,https://raw.githubusercontent.com/carero2/loss-perception/main/png/0.49blue1yellowb%3D1w%3D100v%3D69.png,https://raw.githubusercontent.com/carero2/loss-perception/main/png/0.47blue1yellowb%3D1w%3D100v%3D69.png,,,,,,,,,true,j,keypress(j),0.47,0.47,false,659584,659566,658461.62,658671,658670.46,659587.44,,,
choice,canvas.Screen,0_7_12_2,2022-07-13T16:49:29.575Z,,,0.47,,4,1007.4400000000605,timeout,,,0.49,,0.49,,,6,23,,,,,,,,,,,0.47,false,660591,660577.68,659587.1,659587,659587.44,660594.88,123,,
ITI,canvas.Screen,0_7_12_3,2022-07-13T16:49:30.076Z,,2612,,,4,499.19999999995343,timeout,,,0.49,,,,,,,,,,,,,,,,,0.47,false,661093,661078.46,660577.68,660591,660594.88,661094.08,,,
trial,flow.Sequence,0_7_12,2022-07-13T16:49:30.076Z,,,,,4,3100.0599999999395,completion,,,0.49,,,,,,,,,,,,,,,,,0.47,false,661093,661078.46,657961.84,657976,657978.4,661094.08,,,
fixation,canvas.Screen,0_7_13_0,2022-07-13T16:49:30.576Z,,,,,2,688.359999999986,timeout,,,0.505,,,,,,,,,,,,,,,,,0.495,true,661591,661578.46,661078.46,661093,661094.08,661782.44,,,
stimulus,canvas.Screen,0_7_13_1,2022-07-13T16:49:31.497Z,,,,,2,711.5600000000559,response,,0.495,0.505,,,https://raw.githubusercontent.com/carero2/loss-perception/main/png/0.495blue1yellowb%3D1w%3D100v%3D14.png,https://raw.githubusercontent.com/carero2/loss-perception/main/png/0.505blue1yellowb%3D1w%3D100v%3D14.png,,,,,,,,,true,j,keypress(j),0.505,0.495,true,662512,662494,661578.46,661782,661782.44,662515.06,,,
choice,canvas.Screen,0_7_13_2,2022-07-13T16:49:32.492Z,,,0.505,,2,996.5999999999767,timeout,,,0.505,,0.495,,,-1,22,,,,,,,,,,,0.495,true,663509,663494.62,662514.7,662514,662515.06,663511.66,122,,
ITI,canvas.Screen,0_7_13_3,2022-07-13T16:49:32.991Z,,2987,,,2,499.45999999996275,timeout,,,0.505,,,,,,,,,,,,,,,,,0.495,true,664007,663993.96,663494.62,663509,663511.66,664011.12,,,
trial,flow.Sequence,0_7_13,2022-07-13T16:49:32.992Z,,,,,2,2899.8800000000047,completion,,,0.505,,,,,,,,,,,,,,,,,0.495,true,664007,663993.96,661078.46,661093,661094.08,664011.12,,,
fixation,canvas.Screen,0_7_14_0,2022-07-13T16:49:33.493Z,,,,,6,674.8000000000466,timeout,,,0.545,,,,,,,,,,,,,,,,,0.515,false,664509,664495.06,663993.96,664007,664011.12,664685.92,,,
stimulus,canvas.Screen,0_7_14_1,2022-07-13T16:49:34.048Z,,,,,6,359.0799999999581,response,,0.545,0.545,,,https://raw.githubusercontent.com/carero2/loss-perception/main/png/0.545blue1yellowb%3D1w%3D100v%3D88.png,https://raw.githubusercontent.com/carero2/loss-perception/main/png/0.515blue1yellowb%3D1w%3D100v%3D88.png,,,,,,,,,true,j,keypress(j),0.515,0.515,false,665064,665045,664495.06,664686,664685.92,665066.26,,,
choice,canvas.Screen,0_7_14_2,2022-07-13T16:49:35.042Z,,,0.515,,6,994.4000000000233,timeout,,,0.545,,0.545,,,-3,19,,,,,,,,,,,0.515,false,666058,666045.06,665065.94,665066,665066.26,666060.66,119,,
ITI,canvas.Screen,0_7_14_3,2022-07-13T16:49:35.543Z,,2308,,,6,500.21999999997206,timeout,,,0.545,,,,,,,,,,,,,,,,,0.515,false,666559,666544.82,666045.06,666058,666060.66,666560.88,,,
trial,flow.Sequence,0_7_14,2022-07-13T16:49:35.543Z,,,,,6,2533.6999999999534,completion,,,0.545,,,,,,,,,,,,,,,,,0.515,false,666559,666544.82,663993.96,664007,664011.12,666560.88,,,
fixation,canvas.Screen,0_7_15_0,2022-07-13T16:49:36.044Z,,,,,2,674.8399999999674,timeout,,,0.515,,,,,,,,,,,,,,,,,0.505,true,667060,667044.94,666544.82,666559,666560.88,667235.72,,,
stimulus,canvas.Screen,0_7_15_1,2022-07-13T16:49:36.918Z,,,,,2,682.2800000000279,response,,0.505,0.515,,,https://raw.githubusercontent.com/carero2/loss-perception/main/png/0.505blue1yellowb%3D1w%3D100v%3D16.png,https://raw.githubusercontent.com/carero2/loss-perception/main/png/0.515blue1yellowb%3D1w%3D100v%3D16.png,,,,,,,,,true,j,keypress(j),0.515,0.505,true,667934,667918,667044.94,667236,667235.72,667936.88,,,
choice,canvas.Screen,0_7_15_2,2022-07-13T16:49:37.926Z,,,0.515,,2,1008.0400000000373,timeout,,,0.515,,0.505,,,-3,16,,,,,,,,,,,0.505,true,668943,668928.08,667936.48,667936,667936.88,668944.92,116,,
ITI,canvas.Screen,0_7_15_3,2022-07-13T16:49:38.425Z,,2037,,,2,499.6599999999162,timeout,,,0.515,,,,,,,,,,,,,,,,,0.505,true,669441,669427.32,668928.08,668943,668944.92,669444.58,,,
trial,flow.Sequence,0_7_15,2022-07-13T16:49:38.426Z,,,,,2,2866.439999999944,completion,,,0.515,,,,,,,,,,,,,,,,,0.505,true,669442,669427.32,666544.82,666559,666560.88,669444.58,,,
fixation,canvas.Screen,0_7_16_0,2022-07-13T16:49:38.926Z,,,,,6,677.8400000000838,timeout,,,0.485,,,,,,,,,,,,,,,,,0.455,true,669942,669928.34,669427.32,669442,669444.58,670122.42,,,
stimulus,canvas.Screen,0_7_16_1,2022-07-13T16:49:40.870Z,,,,,6,1746.579999999958,response,,0.455,0.485,,,https://raw.githubusercontent.com/carero2/loss-perception/main/png/0.455blue1yellowb%3D1w%3D100v%3D57.png,https://raw.githubusercontent.com/carero2/loss-perception/main/png/0.485blue1yellowb%3D1w%3D100v%3D57.png,,,,,,,,,true,f,keypress(f),0.485,0.455,true,671886,671869,669928.34,670123,670122.42,671889.02,,,
choice,canvas.Screen,0_7_16_2,2022-07-13T16:49:41.875Z,,,0.455,,6,1005.8399999999674,timeout,,,0.485,,0.485,,,9,25,,,,,,,,,,,0.455,true,672891,672877.54,671888.66,671889,671889.02,672894.86,125,,
ITI,canvas.Screen,0_7_16_3,2022-07-13T16:49:42.375Z,,2446,,,6,499.6600000000326,timeout,,,0.485,,,,,,,,,,,,,,,,,0.455,true,673392,673377.62,672877.54,672891,672894.86,673394.52,,,
trial,flow.Sequence,0_7_16,2022-07-13T16:49:42.375Z,,,,,6,3933.0400000000373,completion,,,0.485,,,,,,,,,,,,,,,,,0.455,true,673392,673377.62,669427.32,669442,669444.58,673394.52,,,
fixation,canvas.Screen,0_7_17_0,2022-07-13T16:49:42.877Z,,,,,6,685.9000000000233,timeout,,,0.515,,,,,,,,,,,,,,,,,0.485,false,673893,673878.28,673377.62,673392,673394.52,674080.42,,,
stimulus,canvas.Screen,0_7_17_1,2022-07-13T16:49:43.877Z,,,,,6,794.5799999999581,response,,0.515,0.515,,,https://raw.githubusercontent.com/carero2/loss-perception/main/png/0.515blue1yellowb%3D1w%3D100v%3D97.png,https://raw.githubusercontent.com/carero2/loss-perception/main/png/0.485blue1yellowb%3D1w%3D100v%3D97.png,,,,,,,,,true,j,keypress(j),0.485,0.485,false,674893,674875,673878.28,674080,674080.42,674894.6,,,
choice,canvas.Screen,0_7_17_2,2022-07-13T16:49:44.876Z,,,0.485,,6,999.3399999999674,timeout,,,0.515,,0.515,,,3,28,,,,,,,,,,,0.485,false,675893,675878.24,674894.3,674894,674894.6,675893.94,128,,
ITI,canvas.Screen,0_7_17_3,2022-07-13T16:49:45.377Z,,2069,,,6,500.86000000010245,timeout,,,0.515,,,,,,,,,,,,,,,,,0.485,false,676393,676378.26,675878.24,675893,675893.94,676394.8,,,
trial,flow.Sequence,0_7_17,2022-07-13T16:49:45.377Z,,,,,6,2983.7399999999907,completion,,,0.515,,,,,,,,,,,,,,,,,0.485,false,676393,676378.26,673377.62,673392,673394.52,676394.8,,,
fixation,canvas.Screen,0_7_18_0,2022-07-13T16:49:45.876Z,,,,,2,676.859999999986,timeout,,,0.495,,,,,,,,,,,,,,,,,0.485,true,676892,676878.02,676378.26,676393,676394.8,677071.66,,,
stimulus,canvas.Screen,0_7_18_1,2022-07-13T16:49:48.094Z,,,,,2,2020.3399999999674,response,,0.485,0.495,,,https://raw.githubusercontent.com/carero2/loss-perception/main/png/0.485blue1yellowb%3D1w%3D100v%3D86.png,https://raw.githubusercontent.com/carero2/loss-perception/main/png/0.495blue1yellowb%3D1w%3D100v%3D86.png,,,,,,,,,true,f,keypress(f),0.495,0.485,true,679110,679092,676878.02,677071,677071.66,679112.04,,,
choice,canvas.Screen,0_7_18_2,2022-07-13T16:49:49.092Z,,,0.485,,2,999.2199999999721,timeout,,,0.495,,0.495,,,3,31,,,,,,,,,,,0.485,true,680108,680093.98,679111.74,679112,679112.04,680111.26,131,,
ITI,canvas.Screen,0_7_18_3,2022-07-13T16:49:49.593Z,,2900,,,2,499.21999999997206,timeout,,,0.495,,,,,,,,,,,,,,,,,0.485,true,680609,680594.86,680093.98,680108,680111.26,680610.48,,,
trial,flow.Sequence,0_7_18,2022-07-13T16:49:49.594Z,,,,,2,4200.0599999999395,completion,,,0.495,,,,,,,,,,,,,,,,,0.485,true,680609,680594.86,676378.26,676393,676394.8,680610.48,,,
fixation,canvas.Screen,0_7_19_0,2022-07-13T16:49:50.093Z,,,,,2,683.6199999999953,timeout,,,0.505,,,,,,,,,,,,,,,,,0.495,false,681109,681094.84,680594.86,680609,680610.48,681294.1,,,
stimulus,canvas.Screen,0_7_19_1,2022-07-13T16:49:50.846Z,,,,,2,549.9000000000233,response,,0.505,0.505,,,https://raw.githubusercontent.com/carero2/loss-perception/main/png/0.505blue1yellowb%3D1w%3D100v%3D30.png,https://raw.githubusercontent.com/carero2/loss-perception/main/png/0.495blue1yellowb%3D1w%3D100v%3D30.png,,,,,,,,,true,j,keypress(j),0.495,0.495,false,681862,681844,681094.84,681294,681294.1,681864.34,,,
choice,canvas.Screen,0_7_19_2,2022-07-13T16:49:51.844Z,,,0.495,,2,997.0200000000186,timeout,,,0.505,,0.505,,,1,32,,,,,,,,,,,0.495,false,682860,682844.82,681863.92,681864,681864.34,682861.36,132,,
ITI,canvas.Screen,0_7_19_3,2022-07-13T16:49:52.343Z,,2908,,,2,499.9799999999814,timeout,,,0.505,,,,,,,,,,,,,,,,,0.495,false,683359,683344.72,682844.82,682861,682861.36,683361.34,,,
trial,flow.Sequence,0_7_19,2022-07-13T16:49:52.343Z,,,,,2,2734.2399999999907,completion,,,0.505,,,,,,,,,,,,,,,,,0.495,false,683359,683344.72,680594.86,680609,680610.48,683361.34,,,
fixation,canvas.Screen,0_7_20_0,2022-07-13T16:49:52.842Z,,,,,6,681.9600000000792,timeout,,,0.515,,,,,,,,,,,,,,,,,0.485,true,683858,683844.02,683344.72,683359,683361.34,684043.3,,,
stimulus,canvas.Screen,0_7_20_1,2022-07-13T16:49:53.669Z,,,,,6,625.6999999999534,response,,0.485,0.515,,,https://raw.githubusercontent.com/carero2/loss-perception/main/png/0.485blue1yellowb%3D1w%3D100v%3D61.png,https://raw.githubusercontent.com/carero2/loss-perception/main/png/0.515blue1yellowb%3D1w%3D100v%3D61.png,,,,,,,,,true,f,keypress(f),0.515,0.485,true,684685,684669,683844.02,684043,684043.3,684688.58,,,
choice,canvas.Screen,0_7_20_2,2022-07-13T16:49:54.676Z,,,0.485,,6,1006.1000000000931,timeout,,,0.515,,0.515,,,3,35,,,,,,,,,,,0.485,true,685692,685678.06,684688.2,684688,684688.58,685694.68,135,,
ITI,canvas.Screen,0_7_20_3,2022-07-13T16:49:55.174Z,,2215,,,6,500,timeout,,,0.515,,,,,,,,,,,,,,,,,0.485,true,686191,686176.98,685678.06,685693,685694.68,686194.68,,,
trial,flow.Sequence,0_7_20,2022-07-13T16:49:55.175Z,,,,,6,2815.640000000014,completion,,,0.515,,,,,,,,,,,,,,,,,0.485,true,686191,686176.98,683344.72,683359,683361.34,686194.68,,,
fixation,canvas.Screen,0_7_21_0,2022-07-13T16:49:55.674Z,,,,,6,669.4799999999814,timeout,,,0.545,,,,,,,,,,,,,,,,,0.515,true,686690,686677,686176.98,686191,686194.68,686864.16,,,
stimulus,canvas.Screen,0_7_21_1,2022-07-13T16:49:56.539Z,,,,,6,671.8399999999674,response,,0.515,0.545,,,https://raw.githubusercontent.com/carero2/loss-perception/main/png/0.515blue1yellowb%3D1w%3D100v%3D55.png,https://raw.githubusercontent.com/carero2/loss-perception/main/png/0.545blue1yellowb%3D1w%3D100v%3D55.png,,,,,,,,,true,f,keypress(f),0.545,0.515,true,687555,687536,686677,686864,686864.16,687557.86,,,
choice,canvas.Screen,0_7_21_2,2022-07-13T16:49:57.543Z,,,0.515,,6,1002.5400000000373,timeout,,,0.545,,0.545,,,-3,32,,,,,,,,,,,0.515,true,688559,688544.76,687557.48,687557,687557.86,688560.4,132,,
ITI,canvas.Screen,0_7_21_3,2022-07-13T16:49:58.043Z,,2620,,,6,500.8399999999674,timeout,,,0.545,,,,,,,,,,,,,,,,,0.515,true,689059,689043.64,688544.76,688559,688560.4,689061.24,,,
trial,flow.Sequence,0_7_21,2022-07-13T16:49:58.043Z,,,,,6,2848.9599999999627,completion,,,0.545,,,,,,,,,,,,,,,,,0.515,true,689059,689043.64,686176.98,686191,686194.68,689061.24,,,
fixation,canvas.Screen,0_7_22_0,2022-07-13T16:49:58.543Z,,,,,4,686,timeout,,,0.53,,,,,,,,,,,,,,,,,0.51,true,689558,689544.48,689043.64,689059,689061.24,689747.24,,,
stimulus,canvas.Screen,0_7_22_1,2022-07-13T16:49:59.380Z,,,,,4,629.7600000000093,response,,0.51,0.53,,,https://raw.githubusercontent.com/carero2/loss-perception/main/png/0.51blue1yellowb%3D1w%3D100v%3D10.png,https://raw.githubusercontent.com/carero2/loss-perception/main/png/0.53blue1yellowb%3D1w%3D100v%3D10.png,,,,,,,,,true,f,keypress(f),0.53,0.51,true,690396,690377,689544.48,689747,689747.24,690398.88,,,
choice,canvas.Screen,0_7_22_2,2022-07-13T16:50:00.376Z,,,0.51,,4,995.7199999999721,timeout,,,0.53,,0.53,,,-2,30,,,,,,,,,,,0.51,true,691393,691378.02,690398.46,690398,690398.88,691394.6,130,,
ITI,canvas.Screen,0_7_22_3,2022-07-13T16:50:00.877Z,,2553,,,4,500,timeout,,,0.53,,,,,,,,,,,,,,,,,0.51,true,691893,691878.06,691378.02,691393,691394.6,691894.6,,,
trial,flow.Sequence,0_7_22,2022-07-13T16:50:00.877Z,,,,,4,2816.820000000065,completion,,,0.53,,,,,,,,,,,,,,,,,0.51,true,691893,691878.06,689043.64,689059,689061.24,691894.6,,,
fixation,canvas.Screen,0_7_23_0,2022-07-13T16:50:01.375Z,,,,,4,684.1199999999953,timeout,,,0.49,,,,,,,,,,,,,,,,,0.47,true,692390,692377.34,691878.06,691893,691894.6,692578.72,,,
stimulus,canvas.Screen,0_7_23_1,2022-07-13T16:50:02.155Z,,,,,4,573.2800000000279,response,,0.47,0.49,,,https://raw.githubusercontent.com/carero2/loss-perception/main/png/0.47blue1yellowb%3D1w%3D100v%3D85.png,https://raw.githubusercontent.com/carero2/loss-perception/main/png/0.49blue1yellowb%3D1w%3D100v%3D85.png,,,,,,,,,true,f,keypress(f),0.49,0.47,true,693171,693152,692377.34,692579,692578.72,693173.14,,,
choice,canvas.Screen,0_7_23_2,2022-07-13T16:50:03.159Z,,,0.47,,4,1004.7600000000093,timeout,,,0.49,,0.49,,,6,36,,,,,,,,,,,0.47,true,694176,694161.32,693172.76,693172,693173.14,694177.9,136,,
ITI,canvas.Screen,0_7_23_3,2022-07-13T16:50:03.660Z,,2574,,,4,499.9799999999814,timeout,,,0.49,,,,,,,,,,,,,,,,,0.47,true,694676,694661.34,694161.32,694176,694177.9,694677.88,,,
trial,flow.Sequence,0_7_23,2022-07-13T16:50:03.660Z,,,,,4,2766.7399999999907,completion,,,0.49,,,,,,,,,,,,,,,,,0.47,true,694676,694661.34,691878.06,691893,691894.6,694677.88,,,
fixation,canvas.Screen,0_7_24_0,2022-07-13T16:50:04.158Z,,,,,2,693.8199999999488,timeout,,,0.515,,,,,,,,,,,,,,,,,0.505,true,695174,695160.84,694661.34,694676,694677.88,695371.7,,,
stimulus,canvas.Screen,0_7_24_1,2022-07-13T16:50:05.259Z,,,,,2,884.3000000000466,response,,0.505,0.515,,,https://raw.githubusercontent.com/carero2/loss-perception/main/png/0.505blue1yellowb%3D1w%3D100v%3D67.png,https://raw.githubusercontent.com/carero2/loss-perception/main/png/0.515blue1yellowb%3D1w%3D100v%3D67.png,,,,,,,,,true,j,keypress(j),0.515,0.505,true,696274,696256,695160.84,695372,695371.7,696276.14,,,
choice,canvas.Screen,0_7_24_2,2022-07-13T16:50:06.260Z,,,0.515,,2,1001.6999999999534,timeout,,,0.515,,0.505,,,-3,33,,,,,,,,,,,0.505,true,697276,697261.3,696275.78,696275,696276.14,697277.84,133,,
ITI,canvas.Screen,0_7_24_3,2022-07-13T16:50:06.759Z,,2787,,,2,500,timeout,,,0.515,,,,,,,,,,,,,,,,,0.505,true,697776,697761.32,697261.3,697276,697277.84,697777.84,,,
trial,flow.Sequence,0_7_24,2022-07-13T16:50:06.759Z,,,,,2,3083.439999999944,completion,,,0.515,,,,,,,,,,,,,,,,,0.505,true,697776,697761.32,694661.34,694676,694677.88,697777.84,,,
fixation,canvas.Screen,0_7_25_0,2022-07-13T16:50:07.260Z,,,,,6,516.6600000000326,timeout,,,0.485,,,,,,,,,,,,,,,,,0.455,true,698275,698260.64,697761.32,697776,697777.84,698294.5,,,
stimulus,canvas.Screen,0_7_25_1,2022-07-13T16:50:07.997Z,,,,,6,701.5,response,,0.455,0.485,,,https://raw.githubusercontent.com/carero2/loss-perception/main/png/0.455blue1yellowb%3D1w%3D100v%3D54.png,https://raw.githubusercontent.com/carero2/loss-perception/main/png/0.485blue1yellowb%3D1w%3D100v%3D54.png,,,,,,,,,true,f,keypress(f),0.485,0.455,true,699013,698996,698260.64,698277,698294.5,699014.66,,,
choice,canvas.Screen,0_7_25_2,2022-07-13T16:50:08.992Z,,,0.455,,6,996.0799999999581,timeout,,,0.485,,0.485,,,9,42,,,,,,,,,,,0.455,true,700007,699993.48,699014.34,699015,699014.66,700010.74,142,,
ITI,canvas.Screen,0_7_25_3,2022-07-13T16:50:09.493Z,,2012,,,6,500.4000000000233,timeout,,,0.485,,,,,,,,,,,,,,,,,0.455,true,700509,700494.58,699993.48,700007,700010.74,700511.14,,,
trial,flow.Sequence,0_7_25,2022-07-13T16:50:09.493Z,,,,,6,2716.7399999999907,completion,,,0.485,,,,,,,,,,,,,,,,,0.455,true,700509,700494.58,697761.32,697776,697777.84,700511.14,,,
fixation,canvas.Screen,0_7_26_0,2022-07-13T16:50:09.993Z,,,,,4,674.5200000000186,timeout,,,0.51,,,,,,,,,,,,,,,,,0.49,false,701009,700994.7,700494.58,700509,700511.14,701185.66,,,
stimulus,canvas.Screen,0_7_26_1,2022-07-13T16:50:12.032Z,,,,,4,1843.3399999999674,response,,0.51,0.51,,,https://raw.githubusercontent.com/carero2/loss-perception/main/png/0.51blue1yellowb%3D1w%3D100v%3D89.png,https://raw.githubusercontent.com/carero2/loss-perception/main/png/0.49blue1yellowb%3D1w%3D100v%3D89.png,,,,,,,,,true,j,keypress(j),0.49,0.49,false,703047,703029,700994.7,701185,701185.66,703050.28,,,
choice,canvas.Screen,0_7_26_2,2022-07-13T16:50:13.025Z,,,0.49,,4,994.140000000014,timeout,,,0.51,,0.51,,,2,44,,,,,,,,,,,0.49,false,704041,704026.76,703049.28,703049,703050.28,704044.42,144,,
ITI,canvas.Screen,0_7_26_3,2022-07-13T16:50:13.525Z,,2765,,,4,499.7799999999115,timeout,,,0.51,,,,,,,,,,,,,,,,,0.49,false,704541,704527.16,704026.76,704041,704044.42,704544.2,,,
trial,flow.Sequence,0_7_26,2022-07-13T16:50:13.525Z,,,,,4,4016.0200000000186,completion,,,0.51,,,,,,,,,,,,,,,,,0.49,false,704541,704527.16,700494.58,700509,700511.14,704544.2,,,
fixation,canvas.Screen,0_7_27_0,2022-07-13T16:50:14.026Z,,,,,6,516.9400000000605,timeout,,,0.485,,,,,,,,,,,,,,,,,0.455,true,705042,705027.84,704527.16,704541,704544.2,705061.14,,,
stimulus,canvas.Screen,0_7_27_1,2022-07-13T16:50:14.836Z,,,,,6,772.859999999986,response,,0.455,0.485,,,https://raw.githubusercontent.com/carero2/loss-perception/main/png/0.455blue1yellowb%3D1w%3D100v%3D54.png,https://raw.githubusercontent.com/carero2/loss-perception/main/png/0.485blue1yellowb%3D1w%3D100v%3D54.png,,,,,,,,,true,f,keypress(f),0.485,0.455,true,705852,705834,705027.84,705043,705061.14,705854.36,,,
choice,canvas.Screen,0_7_27_2,2022-07-13T16:50:15.841Z,,,0.455,,6,1006.2600000000093,timeout,,,0.485,,0.485,,,9,53,,,,,,,,,,,0.455,true,706857,706843.42,705854,705854,705854.36,706860.62,153,,
ITI,canvas.Screen,0_7_27_3,2022-07-13T16:50:16.342Z,,2749,,,6,500.4200000000419,timeout,,,0.485,,,,,,,,,,,,,,,,,0.455,true,707359,707344.48,706843.42,706857,706860.62,707361.04,,,
trial,flow.Sequence,0_7_27,2022-07-13T16:50:16.343Z,,,,,6,2800.280000000028,completion,,,0.485,,,,,,,,,,,,,,,,,0.455,true,707359,707344.48,704527.16,704541,704544.2,707361.04,,,
fixation,canvas.Screen,0_7_28_0,2022-07-13T16:50:16.843Z,,,,,2,681.8199999999488,timeout,,,0.495,,,,,,,,,,,,,,,,,0.485,true,707858,707844.48,707344.48,707359,707361.04,708042.86,,,
stimulus,canvas.Screen,0_7_28_1,2022-07-13T16:50:18.141Z,,,,,2,1095.140000000014,response,,0.485,0.495,,,https://raw.githubusercontent.com/carero2/loss-perception/main/png/0.485blue1yellowb%3D1w%3D100v%3D92.png,https://raw.githubusercontent.com/carero2/loss-perception/main/png/0.495blue1yellowb%3D1w%3D100v%3D92.png,,,,,,,,,true,f,keypress(f),0.495,0.485,true,709157,709138,707844.48,708043,708042.86,709158.92,,,
choice,canvas.Screen,0_7_28_2,2022-07-13T16:50:19.141Z,,,0.485,,2,1001.859999999986,timeout,,,0.495,,0.495,,,3,56,,,,,,,,,,,0.485,true,710157,710143.66,709158.46,709159,709158.92,710160.78,156,,
ITI,canvas.Screen,0_7_28_3,2022-07-13T16:50:19.643Z,,2401,,,2,499.21999999997206,timeout,,,0.495,,,,,,,,,,,,,,,,,0.485,true,710659,710644.42,710143.66,710157,710160.78,710660,,,
trial,flow.Sequence,0_7_28,2022-07-13T16:50:19.643Z,,,,,2,3283.3800000000047,completion,,,0.495,,,,,,,,,,,,,,,,,0.485,true,710659,710644.42,707344.48,707359,707361.04,710660,,,
fixation,canvas.Screen,0_7_29_0,2022-07-13T16:50:20.142Z,,,,,2,709.3800000000047,timeout,,,0.515,,,,,,,,,,,,,,,,,0.505,false,711158,711144.44,710644.42,710660,710660,711369.38,,,
stimulus,canvas.Screen,0_7_29_1,2022-07-13T16:50:21.223Z,,,,,2,850.6199999999953,response,,0.515,0.515,,,https://raw.githubusercontent.com/carero2/loss-perception/main/png/0.515blue1yellowb%3D1w%3D100v%3D42.png,https://raw.githubusercontent.com/carero2/loss-perception/main/png/0.505blue1yellowb%3D1w%3D100v%3D42.png,,,,,,,,,true,j,keypress(j),0.505,0.505,false,712238,712220,711144.44,711369,711369.38,712240.92,,,
choice,canvas.Screen,0_7_29_2,2022-07-13T16:50:22.227Z,,,0.505,,2,1002.359999999986,timeout,,,0.515,,0.515,,,-1,55,,,,,,,,,,,0.505,false,713243,713227.74,712240.56,712240,712240.92,713243.28,155,,
ITI,canvas.Screen,0_7_29_3,2022-07-13T16:50:22.727Z,,2413,,,2,501.0200000000186,timeout,,,0.515,,,,,,,,,,,,,,,,,0.505,false,713742,713727.76,713227.74,713243,713243.28,713744.3,,,
trial,flow.Sequence,0_7_29,2022-07-13T16:50:22.727Z,,,,,2,3067.7600000000093,completion,,,0.515,,,,,,,,,,,,,,,,,0.505,false,713742,713727.76,710644.42,710660,710660,713744.3,,,
fixation,canvas.Screen,0_7_30_0,2022-07-13T16:50:23.225Z,,,,,4,673.3199999999488,timeout,,,0.49,,,,,,,,,,,,,,,,,0.47,false,714241,714227.32,713727.76,713742,713744.3,714417.62,,,
stimulus,canvas.Screen,0_7_30_1,2022-07-13T16:50:24.593Z,,,,,4,1173.3800000000047,response,,0.49,0.49,,,https://raw.githubusercontent.com/carero2/loss-perception/main/png/0.49blue1yellowb%3D1w%3D100v%3D12.png,https://raw.githubusercontent.com/carero2/loss-perception/main/png/0.47blue1yellowb%3D1w%3D100v%3D12.png,,,,,,,,,true,j,keypress(j),0.47,0.47,false,715608,715591,714227.32,714417,714417.62,715610.34,,,
choice,canvas.Screen,0_7_30_2,2022-07-13T16:50:25.593Z,,,0.47,,4,999.7800000000279,timeout,,,0.49,,0.49,,,6,61,,,,,,,,,,,0.47,false,716609,716594.42,715610.02,715610,715610.34,716610.12,161,,
ITI,canvas.Screen,0_7_30_3,2022-07-13T16:50:26.093Z,,2450,,,4,500.78000000002794,timeout,,,0.49,,,,,,,,,,,,,,,,,0.47,false,717108,717094.34,716594.42,716610,716610.12,717110.9,,,
trial,flow.Sequence,0_7_30,2022-07-13T16:50:26.093Z,,,,,4,3350.039999999921,completion,,,0.49,,,,,,,,,,,,,,,,,0.47,false,717109,717094.34,713727.76,713742,713744.3,717110.9,,,
fixation,canvas.Screen,0_7_31_0,2022-07-13T16:50:26.592Z,,,,,4,678.6799999999348,timeout,,,0.51,,,,,,,,,,,,,,,,,0.49,false,717608,717594.18,717094.34,717109,717110.9,717789.58,,,
stimulus,canvas.Screen,0_7_31_1,2022-07-13T16:50:27.790Z,,,,,4,997.4200000000419,response,,0.51,0.51,,,https://raw.githubusercontent.com/carero2/loss-perception/main/png/0.51blue1yellowb%3D1w%3D100v%3D78.png,https://raw.githubusercontent.com/carero2/loss-perception/main/png/0.49blue1yellowb%3D1w%3D100v%3D78.png,,,,,,,,,true,j,keypress(j),0.49,0.49,false,718806,718787,717594.18,717790,717789.58,718808.94,,,
choice,canvas.Screen,0_7_31_2,2022-07-13T16:50:28.793Z,,,0.49,,4,1001.9400000000605,timeout,,,0.51,,0.51,,,2,63,,,,,,,,,,,0.49,false,719809,719794.26,718808.54,718809,718808.94,719810.88,163,,
ITI,canvas.Screen,0_7_31_3,2022-07-13T16:50:29.293Z,,2661,,,4,499.9200000000419,timeout,,,0.51,,,,,,,,,,,,,,,,,0.49,false,720308,720293.54,719794.26,719809,719810.88,720310.8,,,
trial,flow.Sequence,0_7_31,2022-07-13T16:50:29.293Z,,,,,4,3182.640000000014,completion,,,0.51,,,,,,,,,,,,,,,,,0.49,false,720309,720293.54,717094.34,717109,717110.9,720310.8,,,
fixation,canvas.Screen,0_7_32_0,2022-07-13T16:50:29.792Z,,,,,6,680.1799999999348,timeout,,,0.515,,,,,,,,,,,,,,,,,0.485,true,720808,720794.02,720293.54,720309,720310.8,720990.98,,,
stimulus,canvas.Screen,0_7_32_1,2022-07-13T16:50:30.536Z,,,,,6,542.0200000000186,response,,0.485,0.515,,,https://raw.githubusercontent.com/carero2/loss-perception/main/png/0.485blue1yellowb%3D1w%3D100v%3D16.png,https://raw.githubusercontent.com/carero2/loss-perception/main/png/0.515blue1yellowb%3D1w%3D100v%3D16.png,,,,,,,,,true,f,keypress(f),0.515,0.485,true,721551,721533,720794.02,720991,720990.98,721553.74,,,
choice,canvas.Screen,0_7_32_2,2022-07-13T16:50:31.543Z,,,0.485,,6,1006.5,timeout,,,0.515,,0.515,,,3,66,,,,,,,,,,,0.485,true,722558,722544.26,721553.42,721553,721553.74,722560.24,166,,
ITI,canvas.Screen,0_7_32_3,2022-07-13T16:50:32.043Z,,2633,,,6,500.5799999999581,timeout,,,0.515,,,,,,,,,,,,,,,,,0.485,true,723058,723044.26,722544.26,722559,722560.24,723060.82,,,
trial,flow.Sequence,0_7_32,2022-07-13T16:50:32.043Z,,,,,6,2733.4599999999627,completion,,,0.515,,,,,,,,,,,,,,,,,0.485,true,723059,723044.26,720293.54,720309,720310.8,723060.82,,,
fixation,canvas.Screen,0_7_33_0,2022-07-13T16:50:32.542Z,,,,,6,505.6800000000512,timeout,,,0.545,,,,,,,,,,,,,,,,,0.515,true,723558,723543.56,723044.26,723059,723060.82,723566.5,,,
stimulus,canvas.Screen,0_7_33_1,2022-07-13T16:50:33.322Z,,,,,6,753.5,response,,0.515,0.545,,,https://raw.githubusercontent.com/carero2/loss-perception/main/png/0.515blue1yellowb%3D1w%3D100v%3D92.png,https://raw.githubusercontent.com/carero2/loss-perception/main/png/0.545blue1yellowb%3D1w%3D100v%3D92.png,,,,,,,,,true,f,keypress(f),0.545,0.515,true,724338,724320,723543.56,723567,723566.5,724340.92,,,
choice,canvas.Screen,0_7_33_2,2022-07-13T16:50:34.325Z,,,0.515,,6,1002.7799999999115,timeout,,,0.545,,0.545,,,-3,63,,,,,,,,,,,0.515,true,725341,725326.5,724340.58,724340,724340.92,725343.7,163,,
ITI,canvas.Screen,0_7_33_3,2022-07-13T16:50:34.826Z,,2266,,,6,500.4200000000419,timeout,,,0.545,,,,,,,,,,,,,,,,,0.515,true,725842,725827.56,725326.5,725342,725343.7,725844.12,,,
trial,flow.Sequence,0_7_33,2022-07-13T16:50:34.826Z,,,,,6,2766.740000000107,completion,,,0.545,,,,,,,,,,,,,,,,,0.515,true,725842,725827.56,723044.26,723059,723060.82,725844.12,,,
fixation,canvas.Screen,0_7_34_0,2022-07-13T16:50:35.326Z,,,,,2,675.8199999999488,timeout,,,0.505,,,,,,,,,,,,,,,,,0.495,false,726341,726327.58,725827.56,725842,725844.12,726519.94,,,
stimulus,canvas.Screen,0_7_34_1,2022-07-13T16:50:36.354Z,,,,,2,832.0600000000559,response,,0.505,0.505,,,https://raw.githubusercontent.com/carero2/loss-perception/main/png/0.505blue1yellowb%3D1w%3D100v%3D52.png,https://raw.githubusercontent.com/carero2/loss-perception/main/png/0.495blue1yellowb%3D1w%3D100v%3D52.png,,,,,,,,,true,f,keypress(f),0.495,0.495,false,727370,727352,726327.58,726520,726519.94,727371.72,,,
choice,canvas.Screen,0_7_34_2,2022-07-13T16:50:37.359Z,,,0.505,,2,1005.0999999999767,timeout,,,0.505,,0.495,,,-1,62,,,,,,,,,,,0.495,false,728375,728360.86,727371.38,727371,727371.72,728376.82,162,,
ITI,canvas.Screen,0_7_34_3,2022-07-13T16:50:37.859Z,,2257,,,2,499.6800000000512,timeout,,,0.505,,,,,,,,,,,,,,,,,0.495,false,728875,728860.86,728360.86,728375,728376.82,728876.5,,,
trial,flow.Sequence,0_7_34,2022-07-13T16:50:37.860Z,,,,,2,3016.7399999999907,completion,,,0.505,,,,,,,,,,,,,,,,,0.495,false,728875,728860.86,725827.56,725842,725844.12,728876.5,,,
fixation,canvas.Screen,0_7_35_0,2022-07-13T16:50:38.359Z,,,,,4,690.6600000000326,timeout,,,0.53,,,,,,,,,,,,,,,,,0.51,false,729375,729360.9,728860.86,728875,728876.5,729567.16,,,
stimulus,canvas.Screen,0_7_35_1,2022-07-13T16:50:39.377Z,,,,,4,807.8399999999674,response,,0.53,0.53,,,https://raw.githubusercontent.com/carero2/loss-perception/main/png/0.53blue1yellowb%3D1w%3D100v%3D58.png,https://raw.githubusercontent.com/carero2/loss-perception/main/png/0.51blue1yellowb%3D1w%3D100v%3D58.png,,,,,,,,,true,j,keypress(j),0.51,0.51,false,730393,730375,729360.9,729567,729567.16,730395.12,,,
choice,canvas.Screen,0_7_35_2,2022-07-13T16:50:40.376Z,,,0.51,,4,998.9200000000419,timeout,,,0.53,,0.53,,,-2,60,,,,,,,,,,,0.51,false,731392,731377.48,730394.76,730394,730395.12,731394.04,160,,
ITI,canvas.Screen,0_7_35_3,2022-07-13T16:50:40.876Z,,2839,,,4,500,timeout,,,0.53,,,,,,,,,,,,,,,,,0.51,false,731891,731877.4,731377.48,731392,731394.04,731894.04,,,
trial,flow.Sequence,0_7_35,2022-07-13T16:50:40.876Z,,,,,4,3000.9000000000233,completion,,,0.53,,,,,,,,,,,,,,,,,0.51,false,731891,731877.4,728860.86,728875,728876.5,731894.04,,,
fixation,canvas.Screen,0_7_36_0,2022-07-13T16:50:41.375Z,,,,,2,675.0999999999767,timeout,,,0.495,,,,,,,,,,,,,,,,,0.485,false,732391,732376.62,731877.4,731891,731894.04,732569.14,,,
stimulus,canvas.Screen,0_7_36_1,2022-07-13T16:50:42.292Z,,,,,2,721.859999999986,response,,0.495,0.495,,,https://raw.githubusercontent.com/carero2/loss-perception/main/png/0.495blue1yellowb%3D1w%3D100v%3D13.png,https://raw.githubusercontent.com/carero2/loss-perception/main/png/0.485blue1yellowb%3D1w%3D100v%3D13.png,,,,,,,,,true,j,keypress(j),0.485,0.485,false,733308,733291,732376.62,732569,732569.14,733309.84,,,
choice,canvas.Screen,0_7_36_2,2022-07-13T16:50:43.294Z,,,0.485,,2,1000.0600000000559,timeout,,,0.495,,0.495,,,3,63,,,,,,,,,,,0.485,false,734308,734294.12,733309.52,733309,733309.84,734309.9,163,,
ITI,canvas.Screen,0_7_36_3,2022-07-13T16:50:43.793Z,,2933,,,2,500.7600000000093,timeout,,,0.495,,,,,,,,,,,,,,,,,0.485,false,734809,734794.12,734294.12,734309,734309.9,734810.66,,,
trial,flow.Sequence,0_7_36,2022-07-13T16:50:43.793Z,,,,,2,2900.079999999958,completion,,,0.495,,,,,,,,,,,,,,,,,0.485,false,734809,734794.12,731877.4,731891,731894.04,734810.66,,,
fixation,canvas.Screen,0_7_37_0,2022-07-13T16:50:44.292Z,,,,,4,674.2999999999302,timeout,,,0.49,,,,,,,,,,,,,,,,,0.47,false,735308,735293.64,734794.12,734809,734810.66,735484.96,,,
stimulus,canvas.Screen,0_7_37_1,2022-07-13T16:50:45.616Z,,,,,4,1128.0400000000373,response,,0.49,0.49,,,https://raw.githubusercontent.com/carero2/loss-perception/main/png/0.49blue1yellowb%3D1w%3D100v%3D81.png,https://raw.githubusercontent.com/carero2/loss-perception/main/png/0.47blue1yellowb%3D1w%3D100v%3D81.png,,,,,,,,,true,j,keypress(j),0.47,0.47,false,736631,736613,735293.64,735485,735484.96,736633.84,,,
choice,canvas.Screen,0_7_37_2,2022-07-13T16:50:46.626Z,,,0.47,,4,1010.1199999999953,timeout,,,0.49,,0.49,,,6,69,,,,,,,,,,,0.47,false,737641,737627.22,736633.46,736633,736633.84,737643.96,169,,
ITI,canvas.Screen,0_7_37_3,2022-07-13T16:50:47.126Z,,2099,,,4,499.7200000000885,timeout,,,0.49,,,,,,,,,,,,,,,,,0.47,false,738141,738126.5,737627.22,737642,737643.96,738143.68,,,
trial,flow.Sequence,0_7_37,2022-07-13T16:50:47.126Z,,,,,4,3315.8399999999674,completion,,,0.49,,,,,,,,,,,,,,,,,0.47,false,738141,738126.5,734794.12,734809,734810.66,738143.68,,,
fixation,canvas.Screen,0_7_38_0,2022-07-13T16:50:47.626Z,,,,,6,699.4599999999627,timeout,,,0.545,,,,,,,,,,,,,,,,,0.515,true,738641,738627.38,738126.5,738141,738143.68,738843.14,,,
stimulus,canvas.Screen,0_7_38_1,2022-07-13T16:50:48.770Z,,,,,6,923.859999999986,response,,0.515,0.545,,,https://raw.githubusercontent.com/carero2/loss-perception/main/png/0.515blue1yellowb%3D1w%3D100v%3D84.png,https://raw.githubusercontent.com/carero2/loss-perception/main/png/0.545blue1yellowb%3D1w%3D100v%3D84.png,,,,,,,,,true,f,keypress(f),0.545,0.515,true,739786,739767,738627.38,738843,738843.14,739788.34,,,
choice,canvas.Screen,0_7_38_2,2022-07-13T16:50:49.775Z,,,0.515,,6,1005.3800000000047,timeout,,,0.545,,0.545,,,-3,66,,,,,,,,,,,0.515,true,740790,740776.42,739787.86,739788,739788.34,740793.72,166,,
ITI,canvas.Screen,0_7_38_3,2022-07-13T16:50:50.276Z,,2536,,,6,499.21999999997206,timeout,,,0.545,,,,,,,,,,,,,,,,,0.515,true,741292,741277.36,740776.42,740790,740793.72,741292.94,,,
trial,flow.Sequence,0_7_38,2022-07-13T16:50:50.277Z,,,,,6,3133.679999999935,completion,,,0.545,,,,,,,,,,,,,,,,,0.515,true,741292,741277.36,738126.5,738141,738143.68,741292.94,,,
fixation,canvas.Screen,0_7_39_0,2022-07-13T16:50:50.776Z,,,,,2,692.0400000000373,timeout,,,0.515,,,,,,,,,,,,,,,,,0.505,false,741791,741776.6,741277.36,741292,741292.94,741984.98,,,
stimulus,canvas.Screen,0_7_39_1,2022-07-13T16:50:51.873Z,,,,,2,884.0200000000186,response,,0.515,0.515,,,https://raw.githubusercontent.com/carero2/loss-perception/main/png/0.515blue1yellowb%3D1w%3D100v%3D2.png,https://raw.githubusercontent.com/carero2/loss-perception/main/png/0.505blue1yellowb%3D1w%3D100v%3D2.png,,,,,,,,,true,j,keypress(j),0.505,0.505,false,742887,742869,741776.6,741985,741984.98,742889.7,,,
choice,canvas.Screen,0_7_39_2,2022-07-13T16:50:52.875Z,,,0.505,,2,1003.8600000001024,timeout,,,0.515,,0.515,,,-1,65,,,,,,,,,,,0.505,false,743890,743876.28,742889.44,742889,742889.7,743893.56,165,,
ITI,canvas.Screen,0_7_39_3,2022-07-13T16:50:53.377Z,,2642,,,2,499.29999999993015,timeout,,,0.515,,,,,,,,,,,,,,,,,0.505,false,744391,744377.3,743876.28,743890,743893.56,744392.86,,,
trial,flow.Sequence,0_7_39,2022-07-13T16:50:53.377Z,,,,,2,3084.3600000001024,completion,,,0.515,,,,,,,,,,,,,,,,,0.505,false,744392,744377.3,741277.36,741292,741292.94,744392.86,,,
fixation,canvas.Screen,0_7_40_0,2022-07-13T16:50:53.876Z,,,,,6,675.9599999999627,timeout,,,0.485,,,,,,,,,,,,,,,,,0.455,false,744892,744877.3,744377.3,744392,744392.86,745068.82,,,
stimulus,canvas.Screen,0_7_40_1,2022-07-13T16:50:54.581Z,,,,,6,510.1800000000512,response,,0.485,0.485,,,https://raw.githubusercontent.com/carero2/loss-perception/main/png/0.485blue1yellowb%3D1w%3D100v%3D81.png,https://raw.githubusercontent.com/carero2/loss-perception/main/png/0.455blue1yellowb%3D1w%3D100v%3D81.png,,,,,,,,,true,j,keypress(j),0.455,0.455,false,745596,745579,744877.3,745069,745068.82,745598.2,,,
choice,canvas.Screen,0_7_40_2,2022-07-13T16:50:55.576Z,,,0.455,,6,994.6800000000512,timeout,,,0.485,,0.485,,,9,74,,,,,,,,,,,0.455,false,746590,746577.28,745597.92,745598,745598.2,746592.88,174,,
ITI,canvas.Screen,0_7_40_3,2022-07-13T16:50:56.077Z,,2995,,,6,500.9399999999441,timeout,,,0.485,,,,,,,,,,,,,,,,,0.455,false,747093,747077.28,746577.28,746591,746592.88,747093.82,,,
trial,flow.Sequence,0_7_40,2022-07-13T16:50:56.077Z,,,,,6,2684.420000000042,completion,,,0.485,,,,,,,,,,,,,,,,,0.455,false,747093,747077.28,744377.3,744392,744392.86,747093.82,,,
fixation,canvas.Screen,0_7_41_0,2022-07-13T16:50:56.576Z,,,,,2,692.7400000001071,timeout,,,0.505,,,,,,,,,,,,,,,,,0.495,true,747591,747576.98,747077.28,747093,747093.82,747786.56,,,
stimulus,canvas.Screen,0_7_41_1,2022-07-13T16:50:59.657Z,,,,,2,2869.439999999944,response,,0.495,0.505,,,https://raw.githubusercontent.com/carero2/loss-perception/main/png/0.495blue1yellowb%3D1w%3D100v%3D24.png,https://raw.githubusercontent.com/carero2/loss-perception/main/png/0.505blue1yellowb%3D1w%3D100v%3D24.png,,,,,,,,,true,j,keypress(j),0.505,0.495,true,750673,750656,747576.98,747787,747786.56,750674.7,,,
choice,canvas.Screen,0_7_41_2,2022-07-13T16:51:00.660Z,,,0.505,,2,1001.4600000000792,timeout,,,0.505,,0.495,,,-1,73,,,,,,,,,,,0.495,true,751675,751660.42,750674.36,750674,750674.7,751676.16,173,,
ITI,canvas.Screen,0_7_41_3,2022-07-13T16:51:01.159Z,,2180,,,2,500.9199999999255,timeout,,,0.505,,,,,,,,,,,,,,,,,0.495,true,752174,752159.98,751660.42,751676,751676.16,752177.08,,,
trial,flow.Sequence,0_7_41,2022-07-13T16:51:01.159Z,,,,,2,5066.160000000033,completion,,,0.505,,,,,,,,,,,,,,,,,0.495,true,752175,752159.98,747077.28,747093,747093.82,752177.08,,,
fixation,canvas.Screen,0_7_42_0,2022-07-13T16:51:01.660Z,,,,,4,501.80000000004657,timeout,,,0.51,,,,,,,,,,,,,,,,,0.49,true,752675,752660.52,752159.98,752175,752177.08,752678.88,,,
stimulus,canvas.Screen,0_7_42_1,2022-07-13T16:51:02.263Z,,,,,4,581.1199999999953,response,,0.49,0.51,,,https://raw.githubusercontent.com/carero2/loss-perception/main/png/0.49blue1yellowb%3D1w%3D100v%3D78.png,https://raw.githubusercontent.com/carero2/loss-perception/main/png/0.51blue1yellowb%3D1w%3D100v%3D78.png,,,,,,,,,true,f,keypress(f),0.51,0.49,true,753279,753260,752660.52,752679,752678.88,753281.38,,,
choice,canvas.Screen,0_7_42_2,2022-07-13T16:51:03.260Z,,,0.49,,4,995.6999999999534,timeout,,,0.51,,0.51,,,2,75,,,,,,,,,,,0.49,true,754275,754260.5,753281.02,753281,753281.38,754277.08,175,,
ITI,canvas.Screen,0_7_42_3,2022-07-13T16:51:03.760Z,,2739,,,4,498.9800000000978,timeout,,,0.51,,,,,,,,,,,,,,,,,0.49,true,754775,754760.52,754260.5,754275,754277.08,754776.06,,,
trial,flow.Sequence,0_7_42,2022-07-13T16:51:03.761Z,,,,,4,2583.4400000000605,completion,,,0.51,,,,,,,,,,,,,,,,,0.49,true,754775,754760.52,752159.98,752175,752177.08,754776.06,,,
fixation,canvas.Screen,0_7_43_0,2022-07-13T16:51:04.258Z,,,,,4,700.5399999999208,timeout,,,0.53,,,,,,,,,,,,,,,,,0.51,true,755273,755259.9,754760.52,754776,754776.06,755476.6,,,
stimulus,canvas.Screen,0_7_43_1,2022-07-13T16:51:05.172Z,,,,,4,691.4000000000233,response,,0.51,0.53,,,https://raw.githubusercontent.com/carero2/loss-perception/main/png/0.51blue1yellowb%3D1w%3D100v%3D88.png,https://raw.githubusercontent.com/carero2/loss-perception/main/png/0.53blue1yellowb%3D1w%3D100v%3D88.png,,,,,,,,,true,f,keypress(f),0.53,0.51,true,756187,756168,755259.9,755477,755476.6,756189.44,,,
choice,canvas.Screen,0_7_43_2,2022-07-13T16:51:06.177Z,,,0.51,,4,1003.3400000000838,timeout,,,0.53,,0.53,,,-2,73,,,,,,,,,,,0.51,true,757192,757177.14,756189.08,756189,756189.44,757192.78,173,,
ITI,canvas.Screen,0_7_43_3,2022-07-13T16:51:06.677Z,,2225,,,4,500.61999999999534,timeout,,,0.53,,,,,,,,,,,,,,,,,0.51,true,757691,757677.08,757177.14,757192,757192.78,757693.4,,,
trial,flow.Sequence,0_7_43,2022-07-13T16:51:06.677Z,,,,,4,2901.019999999902,completion,,,0.53,,,,,,,,,,,,,,,,,0.51,true,757692,757677.08,754760.52,754776,754776.06,757693.4,,,
fixation,canvas.Screen,0_7_44_0,2022-07-13T16:51:07.175Z,,,,,6,687.7199999999721,timeout,,,0.515,,,,,,,,,,,,,,,,,0.485,false,758191,758176.88,757677.08,757692,757693.4,758381.12,,,
stimulus,canvas.Screen,0_7_44_1,2022-07-13T16:51:07.912Z,,,,,6,528.8800000000047,response,,0.515,0.515,,,https://raw.githubusercontent.com/carero2/loss-perception/main/png/0.515blue1yellowb%3D1w%3D100v%3D62.png,https://raw.githubusercontent.com/carero2/loss-perception/main/png/0.485blue1yellowb%3D1w%3D100v%3D62.png,,,,,,,,,true,j,keypress(j),0.485,0.485,false,758927,758910,758176.88,758381,758381.12,758929.76,,,
choice,canvas.Screen,0_7_44_2,2022-07-13T16:51:08.909Z,,,0.485,,6,997.1799999999348,timeout,,,0.515,,0.515,,,3,76,,,,,,,,,,,0.485,false,759924,759909.62,758929.4,758929,758929.76,759926.94,176,,
ITI,canvas.Screen,0_7_44_3,2022-07-13T16:51:09.409Z,,2354,,,6,499.1800000000512,timeout,,,0.515,,,,,,,,,,,,,,,,,0.485,false,760424,760409.54,759909.62,759924,759926.94,760426.12,,,
trial,flow.Sequence,0_7_44,2022-07-13T16:51:09.409Z,,,,,6,2716.140000000014,completion,,,0.515,,,,,,,,,,,,,,,,,0.485,false,760424,760409.54,757677.08,757692,757693.4,760426.12,,,
1st block,flow.Loop,0_7,2022-07-13T16:51:09.409Z,,,,,,173243.20000000007,completion,,,,,,,,,,,,,,,,,,,,,,760424,760409.54,587165.96,587166,587166.34,760426.12,,,
show amount,html.Screen,0_8,2022-07-13T16:51:34.948Z,,,,,,25511.880000000005,response,,,,,,,,,,,,,,,,,Continue,click #Continue,,,,785962,785938,760409.54,760425,760426.12,785960.38,,,
second block,canvas.Screen,0_9,2022-07-13T16:51:43.921Z,,,,,,8957.619999999995,response,,,,,,,,,,,,,,,,,space,keypress(Space),,,,794936,794918,785960.3,785963,785960.38,794936.64,,,
fixation,canvas.Screen,0_10_0_0,2022-07-13T16:51:44.426Z,,,,,2,705.9799999999814,timeout,,,0.515,,,,,,,,,,,,,,,,,0.505,true,795441,795425.66,794936.3,794937,794936.64,795642.62,,,
stimulus,canvas.Screen,0_10_0_1,2022-07-13T16:51:47.148Z,,,,,2,2501.3800000000047,response,,0.505,0.515,,,https://raw.githubusercontent.com/carero2/loss-perception/main/png/0.505blue1yellowb%3D1w%3D100v%3D4.png,https://raw.githubusercontent.com/carero2/loss-perception/main/png/0.515blue1yellowb%3D1w%3D100v%3D4.png,,,,,,,,,true,j,keypress(j),0.515,0.505,true,798163,798144,795425.66,795643,795642.62,798166.14,,,
choice,canvas.Screen,0_10_0_2,2022-07-13T16:51:48.142Z,,,0.515,,2,993.640000000014,timeout,,,0.515,,0.505,,,-3,,-3,,,,,,,,,,0.505,true,799157,799143.22,798165.72,798166,798166.14,799159.78,173,,
ITI,canvas.Screen,0_10_0_3,2022-07-13T16:51:48.643Z,,2278,,,2,499.9799999999814,timeout,,,0.515,,,,,,,,,,,,,,,,,0.505,true,799658,799642.96,799143.22,799157,799159.78,799659.76,,,
trial,flow.Sequence,0_10_0,2022-07-13T16:51:48.643Z,,,,,2,4706.319999999949,completion,,,0.515,,,,,,,,,,,,,,,,,0.505,true,799658,799642.96,794936.3,794937,794936.64,799659.76,,,
fixation,canvas.Screen,0_10_1_0,2022-07-13T16:51:49.143Z,,,,,6,507.9399999999441,timeout,,,0.545,,,,,,,,,,,,,,,,,0.515,true,800158,800142.22,799642.96,799658,799659.76,800167.7,,,
stimulus,canvas.Screen,0_10_1_1,2022-07-13T16:51:49.866Z,,,,,6,683.3000000000466,response,,0.515,0.545,,,https://raw.githubusercontent.com/carero2/loss-perception/main/png/0.515blue1yellowb%3D1w%3D100v%3D3.png,https://raw.githubusercontent.com/carero2/loss-perception/main/png/0.545blue1yellowb%3D1w%3D100v%3D3.png,,,,,,,,,true,f,keypress(f),0.545,0.515,true,800880,800851,800142.22,800168,800167.7,800925.44,,,
choice,canvas.Screen,0_10_1_2,2022-07-13T16:51:50.910Z,,,0.515,,6,1000.9800000000978,timeout,,,0.545,,0.545,,,-3,,-6,,,,,,,,,,0.515,true,801924,801909.76,800883.46,800883,800925.44,801926.42,170,,
ITI,canvas.Screen,0_10_1_3,2022-07-13T16:51:51.409Z,,2182,,,6,499.95999999996275,timeout,,,0.545,,,,,,,,,,,,,,,,,0.515,true,802424,802409.08,801909.76,801925,801926.42,802426.38,,,
trial,flow.Sequence,0_10_1,2022-07-13T16:51:51.409Z,,,,,6,2749.319999999949,completion,,,0.545,,,,,,,,,,,,,,,,,0.515,true,802424,802409.08,799642.96,799658,799659.76,802426.38,,,
fixation,canvas.Screen,0_10_2_0,2022-07-13T16:51:51.909Z,,,,,6,674.9799999999814,timeout,,,0.515,,,,,,,,,,,,,,,,,0.485,false,802923,802909.28,802409.08,802425,802426.38,803101.36,,,
stimulus,canvas.Screen,0_10_2_1,2022-07-13T16:51:52.618Z,,,,,6,513.640000000014,response,,0.515,0.515,,,https://raw.githubusercontent.com/carero2/loss-perception/main/png/0.515blue1yellowb%3D1w%3D100v%3D40.png,https://raw.githubusercontent.com/carero2/loss-perception/main/png/0.485blue1yellowb%3D1w%3D100v%3D40.png,,,,,,,,,true,j,keypress(j),0.485,0.485,false,803632,803615,802909.28,803101,803101.36,803635.72,,,
choice,canvas.Screen,0_10_2_2,2022-07-13T16:51:53.625Z,,,0.485,,6,1007.3200000000652,timeout,,,0.515,,0.515,,,3,,-3,,,,,,,,,,0.485,false,804640,804625.46,803635.42,803635,803635.72,804643.04,173,,
ITI,canvas.Screen,0_10_2_3,2022-07-13T16:51:54.125Z,,2330,,,6,500,timeout,,,0.515,,,,,,,,,,,,,,,,,0.485,false,805140,805125.8,804625.46,804640,804643.04,805143.04,,,
trial,flow.Sequence,0_10_2,2022-07-13T16:51:54.126Z,,,,,6,2699.420000000042,completion,,,0.515,,,,,,,,,,,,,,,,,0.485,false,805140,805125.8,802409.08,802425,802426.38,805143.04,,,
fixation,canvas.Screen,0_10_3_0,2022-07-13T16:51:54.625Z,,,,,4,690.6999999999534,timeout,,,0.53,,,,,,,,,,,,,,,,,0.51,true,805640,805625.4,805125.8,805140,805143.04,805833.74,,,
stimulus,canvas.Screen,0_10_3_1,2022-07-13T16:51:55.418Z,,,,,4,580.2600000000093,response,,0.51,0.53,,,https://raw.githubusercontent.com/carero2/loss-perception/main/png/0.51blue1yellowb%3D1w%3D100v%3D33.png,https://raw.githubusercontent.com/carero2/loss-perception/main/png/0.53blue1yellowb%3D1w%3D100v%3D33.png,,,,,,,,,true,f,keypress(f),0.53,0.51,true,806433,806414,805625.4,805834,805833.74,806435.14,,,
choice,canvas.Screen,0_10_3_2,2022-07-13T16:51:56.409Z,,,0.51,,4,991.0200000000186,timeout,,,0.53,,0.53,,,-2,,-5,,,,,,,,,,0.51,true,807424,807409.72,806434.8,806435,806435.14,807426.16,171,,
ITI,canvas.Screen,0_10_3_3,2022-07-13T16:51:56.909Z,,2866,,,4,500.1599999999162,timeout,,,0.53,,,,,,,,,,,,,,,,,0.51,true,807924,807909.26,807409.72,807424,807426.16,807926.32,,,
trial,flow.Sequence,0_10_3,2022-07-13T16:51:56.909Z,,,,,4,2766.219999999972,completion,,,0.53,,,,,,,,,,,,,,,,,0.51,true,807924,807909.26,805125.8,805140,805143.04,807926.32,,,
fixation,canvas.Screen,0_10_4_0,2022-07-13T16:51:57.408Z,,,,,6,692.6199999999953,timeout,,,0.485,,,,,,,,,,,,,,,,,0.455,false,808422,808408.66,807909.26,807924,807926.32,808618.94,,,
stimulus,canvas.Screen,0_10_4_1,2022-07-13T16:51:58.209Z,,,,,6,587.0600000000559,response,,0.485,0.485,,,https://raw.githubusercontent.com/carero2/loss-perception/main/png/0.485blue1yellowb%3D1w%3D100v%3D84.png,https://raw.githubusercontent.com/carero2/loss-perception/main/png/0.455blue1yellowb%3D1w%3D100v%3D84.png,,,,,,,,,true,j,keypress(j),0.455,0.455,false,809223,809206,808408.66,808619,808618.94,809225.74,,,
choice,canvas.Screen,0_10_4_2,2022-07-13T16:51:59.210Z,,,0.455,,6,999.5799999999581,timeout,,,0.485,,0.485,,,9,,4,,,,,,,,,,0.455,false,810224,810209.72,809225.4,809226,809225.74,810225.32,180,,
ITI,canvas.Screen,0_10_4_3,2022-07-13T16:51:59.709Z,,2122,,,6,500,timeout,,,0.485,,,,,,,,,,,,,,,,,0.455,false,810724,810709.32,810209.72,810224,810225.32,810725.32,,,
trial,flow.Sequence,0_10_4,2022-07-13T16:51:59.709Z,,,,,6,2783,completion,,,0.485,,,,,,,,,,,,,,,,,0.455,false,810724,810709.32,807909.26,807924,807926.32,810725.32,,,
fixation,canvas.Screen,0_10_5_0,2022-07-13T16:52:00.209Z,,,,,2,682.9000000000233,timeout,,,0.495,,,,,,,,,,,,,,,,,0.485,false,811224,811209.44,810709.32,810724,810725.32,811408.22,,,
stimulus,canvas.Screen,0_10_5_1,2022-07-13T16:52:00.902Z,,,,,2,491.78000000002794,response,,0.495,0.495,,,https://raw.githubusercontent.com/carero2/loss-perception/main/png/0.495blue1yellowb%3D1w%3D100v%3D18.png,https://raw.githubusercontent.com/carero2/loss-perception/main/png/0.485blue1yellowb%3D1w%3D100v%3D18.png,,,,,,,,,true,j,keypress(j),0.485,0.485,false,811917,811900,811209.44,811408,811408.22,811918.98,,,
choice,canvas.Screen,0_10_5_2,2022-07-13T16:52:01.893Z,,,0.485,,2,990.5800000000745,timeout,,,0.495,,0.495,,,3,,7,,,,,,,,,,0.485,false,812907,812892.9,811918.62,811918,811918.98,812909.56,183,,
ITI,canvas.Screen,0_10_5_3,2022-07-13T16:52:02.392Z,,2480,,,2,499.85999999998603,timeout,,,0.495,,,,,,,,,,,,,,,,,0.485,false,813407,813392.1,812892.9,812907,812909.56,813409.42,,,
trial,flow.Sequence,0_10_5,2022-07-13T16:52:02.393Z,,,,,2,2666.780000000028,completion,,,0.495,,,,,,,,,,,,,,,,,0.485,false,813407,813392.1,810709.32,810724,810725.32,813409.42,,,
fixation,canvas.Screen,0_10_6_0,2022-07-13T16:52:02.893Z,,,,,2,692.0999999999767,timeout,,,0.505,,,,,,,,,,,,,,,,,0.495,true,813907,813893.06,813392.1,813407,813409.42,814101.52,,,
stimulus,canvas.Screen,0_10_6_1,2022-07-13T16:52:03.768Z,,,,,2,663.4799999999814,response,,0.495,0.505,,,https://raw.githubusercontent.com/carero2/loss-perception/main/png/0.495blue1yellowb%3D1w%3D100v%3D99.png,https://raw.githubusercontent.com/carero2/loss-perception/main/png/0.505blue1yellowb%3D1w%3D100v%3D99.png,,,,,,,,,true,f,keypress(f),0.505,0.495,true,814782,814765,813893.06,814101,814101.52,814784.78,,,
choice,canvas.Screen,0_10_6_2,2022-07-13T16:52:04.775Z,,,0.495,,2,1007.5799999999581,timeout,,,0.505,,0.505,,,1,,8,,,,,,,,,,0.495,true,815789,815775.2,814784.42,814784,814784.78,815792.36,184,,
ITI,canvas.Screen,0_10_6_3,2022-07-13T16:52:05.275Z,,2496,,,2,500.5,timeout,,,0.505,,,,,,,,,,,,,,,,,0.495,true,816289,816275.36,815775.2,815789,815792.36,816292.86,,,
trial,flow.Sequence,0_10_6,2022-07-13T16:52:05.275Z,,,,,2,2865.939999999944,completion,,,0.505,,,,,,,,,,,,,,,,,0.495,true,816289,816275.36,813392.1,813407,813409.42,816292.86,,,
fixation,canvas.Screen,0_10_7_0,2022-07-13T16:52:05.777Z,,,,,4,678.3000000000466,timeout,,,0.51,,,,,,,,,,,,,,,,,0.49,true,816791,816776.32,816275.36,816290,816292.86,816971.16,,,
stimulus,canvas.Screen,0_10_7_1,2022-07-13T16:52:06.575Z,,,,,4,600.8399999999674,response,,0.49,0.51,,,https://raw.githubusercontent.com/carero2/loss-perception/main/png/0.49blue1yellowb%3D1w%3D100v%3D12.png,https://raw.githubusercontent.com/carero2/loss-perception/main/png/0.51blue1yellowb%3D1w%3D100v%3D12.png,,,,,,,,,true,f,keypress(f),0.51,0.49,true,817590,817572,816776.32,816972,816971.16,817591.34,,,
choice,canvas.Screen,0_10_7_2,2022-07-13T16:52:07.576Z,,,0.49,,4,1001.5,timeout,,,0.51,,0.51,,,2,,10,,,,,,,,,,0.49,true,818591,818575.96,817591.06,817591,817591.34,818592.84,186,,
ITI,canvas.Screen,0_10_7_3,2022-07-13T16:52:08.075Z,,2706,,,4,499.64000000001397,timeout,,,0.51,,,,,,,,,,,,,,,,,0.49,true,819089,819075.18,818575.96,818591,818592.84,819092.48,,,
trial,flow.Sequence,0_10_7,2022-07-13T16:52:08.075Z,,,,,4,2782.320000000065,completion,,,0.51,,,,,,,,,,,,,,,,,0.49,true,819090,819075.18,816275.36,816289,816292.86,819092.48,,,
fixation,canvas.Screen,0_10_8_0,2022-07-13T16:52:08.576Z,,,,,4,693.8399999999674,timeout,,,0.49,,,,,,,,,,,,,,,,,0.47,false,819590,819576.26,819075.18,819090,819092.48,819786.32,,,
stimulus,canvas.Screen,0_10_8_1,2022-07-13T16:52:09.323Z,,,,,4,534.6800000000512,response,,0.49,0.49,,,https://raw.githubusercontent.com/carero2/loss-perception/main/png/0.49blue1yellowb%3D1w%3D100v%3D51.png,https://raw.githubusercontent.com/carero2/loss-perception/main/png/0.47blue1yellowb%3D1w%3D100v%3D51.png,,,,,,,,,true,j,keypress(j),0.47,0.47,false,820338,820321,819576.26,819786,819786.32,820340.28,,,
choice,canvas.Screen,0_10_8_2,2022-07-13T16:52:10.325Z,,,0.47,,4,1001.6199999999953,timeout,,,0.49,,0.49,,,6,,16,,,,,,,,,,0.47,false,821339,821325.62,820339.98,820340,820340.28,821341.9,192,,
ITI,canvas.Screen,0_10_8_3,2022-07-13T16:52:10.826Z,,2565,,,4,500.9000000000233,timeout,,,0.49,,,,,,,,,,,,,,,,,0.47,false,821841,821826.24,821325.62,821340,821341.9,821842.8,,,
trial,flow.Sequence,0_10_8,2022-07-13T16:52:10.826Z,,,,,4,2733.7600000000093,completion,,,0.49,,,,,,,,,,,,,,,,,0.47,false,821841,821826.24,819075.18,819090,819092.48,821842.8,,,
fixation,canvas.Screen,0_10_9_0,2022-07-13T16:52:11.327Z,,,,,2,687.5199999999022,timeout,,,0.495,,,,,,,,,,,,,,,,,0.485,true,822341,822325.96,821826.24,821841,821842.8,822530.32,,,
stimulus,canvas.Screen,0_10_9_1,2022-07-13T16:52:14.127Z,,,,,2,2593.680000000051,response,,0.485,0.495,,,https://raw.githubusercontent.com/carero2/loss-perception/main/png/0.485blue1yellowb%3D1w%3D100v%3D61.png,https://raw.githubusercontent.com/carero2/loss-perception/main/png/0.495blue1yellowb%3D1w%3D100v%3D61.png,,,,,,,,,true,j,keypress(j),0.495,0.485,true,825142,825124,822325.96,822530,822530.32,825144.7,,,
choice,canvas.Screen,0_10_9_2,2022-07-13T16:52:15.125Z,,,0.495,,2,997.9200000000419,timeout,,,0.495,,0.485,,,1,,17,,,,,,,,,,0.485,true,826140,826125.2,825144.18,825144,825144.7,826142.62,193,,
ITI,canvas.Screen,0_10_9_3,2022-07-13T16:52:15.626Z,,2869,,,2,499.2399999999907,timeout,,,0.495,,,,,,,,,,,,,,,,,0.485,true,826640,826626.16,826125.2,826140,826142.62,826641.86,,,
trial,flow.Sequence,0_10_9,2022-07-13T16:52:15.626Z,,,,,2,4783.359999999986,completion,,,0.495,,,,,,,,,,,,,,,,,0.485,true,826640,826626.16,821826.24,821841,821842.8,826641.86,,,
fixation,canvas.Screen,0_10_10_0,2022-07-13T16:52:16.126Z,,,,,4,684.4200000000419,timeout,,,0.49,,,,,,,,,,,,,,,,,0.47,true,827141,827126.16,826626.16,826640,826641.86,827326.28,,,
stimulus,canvas.Screen,0_10_10_1,2022-07-13T16:52:17.963Z,,,,,4,1632.719999999972,response,,0.47,0.49,,,https://raw.githubusercontent.com/carero2/loss-perception/main/png/0.47blue1yellowb%3D1w%3D100v%3D5.png,https://raw.githubusercontent.com/carero2/loss-perception/main/png/0.49blue1yellowb%3D1w%3D100v%3D5.png,,,,,,,,,true,f,keypress(f),0.49,0.47,true,828978,828959,827126.16,827326,827326.28,828979.66,,,
choice,canvas.Screen,0_10_10_2,2022-07-13T16:52:18.958Z,,,0.47,,4,995.7600000000093,timeout,,,0.49,,0.49,,,6,,23,,,,,,,,,,0.47,true,829973,829959.04,828979.26,828979,828979.66,829975.42,199,,
ITI,canvas.Screen,0_10_10_3,2022-07-13T16:52:19.459Z,,2709,,,4,500.61999999999534,timeout,,,0.49,,,,,,,,,,,,,,,,,0.47,true,830473,830458.74,829959.04,829973,829975.42,830476.04,,,
trial,flow.Sequence,0_10_10,2022-07-13T16:52:19.459Z,,,,,4,3816.8800000000047,completion,,,0.49,,,,,,,,,,,,,,,,,0.47,true,830474,830458.74,826626.16,826640,826641.86,830476.04,,,
fixation,canvas.Screen,0_10_11_0,2022-07-13T16:52:19.959Z,,,,,6,505.6599999999162,timeout,,,0.515,,,,,,,,,,,,,,,,,0.485,false,830974,830959.44,830458.74,830474,830476.04,830981.7,,,
stimulus,canvas.Screen,0_10_11_1,2022-07-13T16:52:20.533Z,,,,,6,546.3000000000466,response,,0.515,0.515,,,https://raw.githubusercontent.com/carero2/loss-perception/main/png/0.515blue1yellowb%3D1w%3D100v%3D16.png,https://raw.githubusercontent.com/carero2/loss-perception/main/png/0.485blue1yellowb%3D1w%3D100v%3D16.png,,,,,,,,,true,j,keypress(j),0.485,0.485,false,831547,831528,830959.44,830982,830981.7,831549.36,,,
choice,canvas.Screen,0_10_11_2,2022-07-13T16:52:21.544Z,,,0.485,,6,1009.2199999999721,timeout,,,0.515,,0.515,,,3,,26,,,,,,,,,,0.485,false,832557,832542.72,831549.08,831549,831549.36,832558.58,202,,
ITI,canvas.Screen,0_10_11_3,2022-07-13T16:52:22.041Z,,2044,,,6,500.6800000000512,timeout,,,0.515,,,,,,,,,,,,,,,,,0.485,false,833056,833041.96,832542.72,832557,832558.58,833059.26,,,
trial,flow.Sequence,0_10_11,2022-07-13T16:52:22.041Z,,,,,6,2565.9199999999255,completion,,,0.515,,,,,,,,,,,,,,,,,0.485,false,833056,833041.96,830458.74,830474,830476.04,833059.26,,,
fixation,canvas.Screen,0_10_12_0,2022-07-13T16:52:22.543Z,,,,,4,678.9399999999441,timeout,,,0.53,,,,,,,,,,,,,,,,,0.51,false,833557,833542.72,833041.96,833056,833059.26,833738.2,,,
stimulus,canvas.Screen,0_10_12_1,2022-07-13T16:52:23.256Z,,,,,4,514.8000000000466,response,,0.53,0.53,,,https://raw.githubusercontent.com/carero2/loss-perception/main/png/0.53blue1yellowb%3D1w%3D100v%3D38.png,https://raw.githubusercontent.com/carero2/loss-perception/main/png/0.51blue1yellowb%3D1w%3D100v%3D38.png,,,,,,,,,true,j,keypress(j),0.51,0.51,false,834271,834253,833542.72,833738,833738.2,834272.66,,,
choice,canvas.Screen,0_10_12_2,2022-07-13T16:52:24.260Z,,,0.51,,4,1002.5599999999395,timeout,,,0.53,,0.53,,,-2,,24,,,,,,,,,,0.51,false,835274,835259.42,834272.26,834273,834272.66,835275.22,200,,
ITI,canvas.Screen,0_10_12_3,2022-07-13T16:52:24.759Z,,2152,,,4,500.71999999997206,timeout,,,0.53,,,,,,,,,,,,,,,,,0.51,false,835774,835758.74,835259.42,835275,835275.22,835775.94,,,
trial,flow.Sequence,0_10_12,2022-07-13T16:52:24.759Z,,,,,4,2699.4799999999814,completion,,,0.53,,,,,,,,,,,,,,,,,0.51,false,835774,835758.74,833041.96,833056,833059.26,835775.94,,,
fixation,canvas.Screen,0_10_13_0,2022-07-13T16:52:25.259Z,,,,,6,702.6600000000326,timeout,,,0.485,,,,,,,,,,,,,,,,,0.455,true,836274,836259.36,835758.74,835774,835775.94,836478.6,,,
