sender,sender_type,sender_id,timestamp,meta,,ITI_value,choice,consent,diff_net_value,duration,ended_on,gain_color,left,left_side,loss_color,not_choice,picture_left,picture_right,points,points1Block,points2Block,points3Block,points4Block,points5Block,points6Block,pointsBlock,responded,response,response_action,right,right_side,switch_sides,time_commit,time_end,time_render,time_run,time_show,time_switch,totalPoints,totalPoints_practice,url
welcome,html.Screen,0_0,2022-07-15T22:00:10.080Z,"{""labjs_version"":""20.2.4"",""labjs_build"":{""flavor"":""production"",""commit"":""f5b4a49f956347addd546a832a3327688c2c0fef""},""location"":""https://run.pavlovia.org/Rey/loss-perception/"",""userAgent"":""Mozilla/5.0 (Windows NT 10.0; Win64; x64) AppleWebKit/537.36 (KHTML, like Gecko) Chrome/103.0.0.0 Safari/537.36"",""platform"":""Win32"",""language"":""en-GB"",""locale"":""en-US"",""timeZone"":""Europe/London"",""timezoneOffset"":-60,""screen_width"":1280,""screen_height"":720,""scroll_width"":1280,""scroll_height"":577,""window_innerWidth"":1280,""window_innerHeight"":577,""devicePixelRatio"":1.5}",,,,,,53245.446000000375,response,yellow,,,blue,,,,,0,0,0,0,0,0,0,,Continue,click #Continue,,,,98551,98543.40000000037,45148.42,45239.699999999255,45297.954,98645.657,100,100,{}
consent,html.Form,0_1,2022-07-15T22:00:19.236Z,,,,,true,,9060.243000000366,form submission,,,,,,,,,,,,,,,,,,,,,,107706.5,107705.90000000037,98529.389,98551.69999999925,98645.657,107764.827,,,
ProlificID,html.Form,0_2,2022-07-15T22:00:32.589Z,,,,,,,13294.772999999623,form submission,,,,,,,,,,,,,,,,,,,,,,121060.09999999963,121059.59999999963,107698.169,107706.69999999925,107764.827,121135.121,,,
instructions,html.Form,0_3,2022-07-15T22:01:33.127Z,,,,,,,60462.47899999963,form submission,,,,,,,,,,,,,,,,,,,,,,181598.19999999925,181597.59999999963,121052.014,121060.30000000075,121135.121,181734.765,,,
Practice,canvas.Screen,0_4,2022-07-15T22:01:38.759Z,,,,,,,5490.135000000359,response,,,,,,,,,,,,,,,,,space,keypress(Space),,,,187229.90000000037,187224.90000000037,181585.256,181598.5,181734.765,187286.267,,,
fixation,canvas.Screen,0_5_0_0,2022-07-15T22:01:39.310Z,,,,,,18,600.1940000000177,timeout,,,0.545,,,,,,,,,,,,,,,,,0.455,false,187781.09999999963,187769.802,187220.096,187230.5,187286.267,187886.461,,,
stimulus,canvas.Screen,0_5_0_1,2022-07-15T22:01:42.402Z,,,,,,18,3100.792999999976,timeout,,0.545,0.545,,,https://raw.githubusercontent.com/carero2/loss-perception/main/png/0.545blue1yellowb%3D1w%3D100v%3D3.png,https://raw.githubusercontent.com/carero2/loss-perception/main/png/0.455blue1yellowb%3D1w%3D100v%3D3.png,,,,,,,,,,,,0.455,0.455,false,190872.30000000075,190871.067,187769.802,187781.5,187886.461,190987.254,,,
choice,canvas.Screen,0_5_0_2,2022-07-15T22:01:42.408Z,,,,0,,18,NaN,skipped,,,0.545,,0,,,0,,,,,,,0,false,timeout,,,0.455,false,190878.90000000037,190871.067,,190878.59999999963,,190987.254,,100,
timeout,canvas.Screen,0_5_0_3,2022-07-15T22:01:44.502Z,,,,,,18,2083.9000000000233,timeout,,,0.545,,,,,,,,,,,,,,,,,0.455,false,192972.90000000037,192971.678,190871.067,190881.19999999925,190987.254,193071.154,,,
ITI,canvas.Screen,0_5_0_4,2022-07-15T22:01:45.086Z,,,,,,18,583.5559999999823,timeout,,,0.545,,,,,,,,,,,,,,,,,0.455,false,193556.30000000075,193555.056,192971.678,192973.30000000075,193071.154,193654.71,,,
trial,flow.Sequence,0_5_0,2022-07-15T22:01:45.087Z,,,,,,18,6268.789000000019,completion,,,0.545,,,,,,,,,,,,,,,,,0.455,false,193557.40000000037,193555.056,187220.096,187230.30000000075,187286.267,193654.71,,,
fixation,canvas.Screen,0_5_1_0,2022-07-15T22:01:45.669Z,,,,,,12,583.4690000000119,timeout,,,0.53,,,,,,,,,,,,,,,,,0.47,false,194139.90000000037,194138.657,193555.056,193557.69999999925,193654.71,194238.179,,,
stimulus,canvas.Screen,0_5_1_1,2022-07-15T22:01:46.665Z,,,,,,12,895.4209999996237,response,,0.53,0.53,,,https://raw.githubusercontent.com/carero2/loss-perception/main/png/0.53blue1yellowb%3D1w%3D100v%3D88.png,https://raw.githubusercontent.com/carero2/loss-perception/main/png/0.47blue1yellowb%3D1w%3D100v%3D88.png,,,,,,,,,true,j,keypress(j),0.47,0.47,false,195136.09999999963,195133.59999999963,194138.657,194140.30000000075,194238.179,195188.39,,,
choice,canvas.Screen,0_5_1_2,2022-07-15T22:01:48.703Z,,,,0.47,,12,2033.9069999999774,timeout,,,0.53,,0.53,,,6,,,,,,,6,,,,,0.47,false,197174,197172.776,195138.427,195141.19999999925,195188.39,197222.297,,106,
timeout,canvas.Screen,0_5_1_3,2022-07-15T22:01:48.706Z,,,,,,12,NaN,skipped,,,0.53,,,,,,,,,,,,,,,,,0.47,false,197177.19999999925,197172.776,,197176.90000000037,,197222.297,,,
ITI,canvas.Screen,0_5_1_4,2022-07-15T22:01:49.237Z,,,,,,12,583.5100000000093,timeout,,,0.53,,,,,,,,,,,,,,,,,0.47,false,197707.59999999963,197706.293,197172.776,197177.40000000037,197222.297,197805.807,,,
trial,flow.Sequence,0_5_1,2022-07-15T22:01:49.237Z,,,,,,12,4051.5830000000133,completion,,,0.53,,,,,,,,,,,,,,,,,0.47,false,197708.19999999925,197706.293,193555.056,193557.59999999963,193654.71,197805.807,,,
fixation,canvas.Screen,0_5_2_0,2022-07-15T22:01:49.820Z,,,,,,6,583.4990000000107,timeout,,,0.545,,,,,,,,,,,,,,,,,0.515,true,198290.80000000075,198289.789,197706.293,197708.59999999963,197805.807,198389.306,,,
stimulus,canvas.Screen,0_5_2_1,2022-07-15T22:01:50.817Z,,,,,,6,895.6939999999886,response,,0.515,0.545,,,https://raw.githubusercontent.com/carero2/loss-perception/main/png/0.515blue1yellowb%3D1w%3D100v%3D14.png,https://raw.githubusercontent.com/carero2/loss-perception/main/png/0.545blue1yellowb%3D1w%3D100v%3D14.png,,,,,,,,,true,f,keypress(f),0.545,0.515,true,199287.5,199285,198289.789,198291.19999999925,198389.306,199339.531,,,
choice,canvas.Screen,0_5_2_2,2022-07-15T22:01:52.854Z,,,,0.515,,6,2033.8800000000047,timeout,,,0.545,,0.545,,,-3,,,,,,,3,,,,,0.515,true,201325,201323.856,199289.642,199293,199339.531,201373.411,,103,
timeout,canvas.Screen,0_5_2_3,2022-07-15T22:01:52.857Z,,,,,,6,NaN,skipped,,,0.545,,,,,,,,,,,,,,,,,0.515,true,201328,201323.856,,201327.80000000075,,201373.411,,,
ITI,canvas.Screen,0_5_2_4,2022-07-15T22:01:53.388Z,,,,,,6,600.1910000000207,timeout,,,0.545,,,,,,,,,,,,,,,,,0.515,true,201858.5,201857.431,201323.856,201328.30000000075,201373.411,201973.602,,,
trial,flow.Sequence,0_5_2,2022-07-15T22:01:53.388Z,,,,,,6,4051.6240000000107,completion,,,0.545,,,,,,,,,,,,,,,,,0.515,true,201859.09999999963,201857.431,197706.293,197708.5,197805.807,201973.602,,,
fixation,canvas.Screen,0_5_3_0,2022-07-15T22:01:53.988Z,,,,,,6,583.4619999999995,timeout,,,0.515,,,,,,,,,,,,,,,,,0.485,false,202458.59999999963,202457.497,201857.431,201859.30000000075,201973.602,202557.064,,,
stimulus,canvas.Screen,0_5_3_1,2022-07-15T22:01:54.839Z,,,,,,6,749.5359999996144,response,,0.515,0.515,,,https://raw.githubusercontent.com/carero2/loss-perception/main/png/0.515blue1yellowb%3D1w%3D100v%3D88.png,https://raw.githubusercontent.com/carero2/loss-perception/main/png/0.485blue1yellowb%3D1w%3D100v%3D88.png,,,,,,,,,true,j,keypress(j),0.485,0.485,false,203309.40000000037,203306.59999999963,202457.497,202458.90000000037,202557.064,203407.333,,,
choice,canvas.Screen,0_5_3_2,2022-07-15T22:01:56.922Z,,,,0.485,,6,2083.88499999998,timeout,,,0.515,,0.515,,,3,,,,,,,6,,,,,0.485,false,205392.80000000075,205391.669,203307.287,203314.59999999963,203407.333,205491.218,,106,
timeout,canvas.Screen,0_5_3_3,2022-07-15T22:01:56.925Z,,,,,,6,NaN,skipped,,,0.515,,,,,,,,,,,,,,,,,0.485,false,205395.69999999925,205391.669,,205395.40000000037,,205491.218,,,
ITI,canvas.Screen,0_5_3_4,2022-07-15T22:01:57.506Z,,,,,,6,583.4949999999953,timeout,,,0.515,,,,,,,,,,,,,,,,,0.485,false,205976.40000000037,205975.173,205391.669,205395.90000000037,205491.218,206074.713,,,
trial,flow.Sequence,0_5_3,2022-07-15T22:01:57.506Z,,,,,,6,4001.5709999999963,completion,,,0.515,,,,,,,,,,,,,,,,,0.485,false,205977.09999999963,205975.173,201857.431,201859.30000000075,201973.602,206074.713,,,
fixation,canvas.Screen,0_5_4_0,2022-07-15T22:01:58.089Z,,,,,,9,583.4660000000149,timeout,,,0.485,,,,,,,,,,,,,,,,,0.53,false,206559.80000000075,206558.677,205975.173,205977.30000000075,206074.713,206658.179,,,
stimulus,canvas.Screen,0_5_4_1,2022-07-15T22:01:58.849Z,,,,,,9,659.1210000007413,response,,0.485,0.485,,,https://raw.githubusercontent.com/carero2/loss-perception/main/png/0.485blue1yellowb%3D1w%3D100v%3D39.png,https://raw.githubusercontent.com/carero2/loss-perception/main/png/0.53blue1yellowb%3D1w%3D100v%3D39.png,,,,,,,,,true,f,keypress(f),0.53,0.53,false,207319.80000000075,207317.30000000075,206558.677,206560.09999999963,206658.179,207425.088,,,
choice,canvas.Screen,0_5_4_2,2022-07-15T22:02:00.940Z,,,,0.485,,9,2083.8790000000154,timeout,,,0.485,,0.53,,,3,,,,,,,9,,,,,0.53,false,209410.5,209409.386,207325.148,207325.19999999925,207425.088,209508.967,,109,
timeout,canvas.Screen,0_5_4_3,2022-07-15T22:02:00.943Z,,,,,,9,NaN,skipped,,,0.485,,,,,,,,,,,,,,,,,0.53,false,209413.5,209409.386,,209413.19999999925,,209508.967,,,
ITI,canvas.Screen,0_5_4_4,2022-07-15T22:02:01.523Z,,,,,,9,583.4949999999953,timeout,,,0.485,,,,,,,,,,,,,,,,,0.53,false,209994,209992.916,209409.386,209413.69999999925,209508.967,210092.462,,,
trial,flow.Sequence,0_5_4,2022-07-15T22:02:01.524Z,,,,,,9,3918.2030000000086,completion,,,0.485,,,,,,,,,,,,,,,,,0.53,false,209994.59999999963,209992.916,205975.173,205977.19999999925,206074.713,210092.462,,,
fixation,canvas.Screen,0_5_5_0,2022-07-15T22:02:02.107Z,,,,,,6,583.4340000000084,timeout,,,0.485,,,,,,,,,,,,,,,,,0.455,true,210577.59999999963,210576.366,209992.916,209994.90000000037,210092.462,210675.896,,,
stimulus,canvas.Screen,0_5_5_1,2022-07-15T22:02:02.915Z,,,,,,6,707.303999999247,response,,0.455,0.485,,,https://raw.githubusercontent.com/carero2/loss-perception/main/png/0.455blue1yellowb%3D1w%3D100v%3D48.png,https://raw.githubusercontent.com/carero2/loss-perception/main/png/0.485blue1yellowb%3D1w%3D100v%3D48.png,,,,,,,,,true,f,keypress(f),0.485,0.455,true,211385.59999999963,211383.19999999925,210576.366,210578,210675.896,211492.839,,,
choice,canvas.Screen,0_5_5_2,2022-07-15T22:02:05.008Z,,,,0.455,,6,2033.8679999999877,timeout,,,0.485,,0.485,,,9,,,,,,,18,,,,,0.455,true,213478.30000000075,213477.165,211376.241,211390.59999999963,211492.839,213526.707,,118,
timeout,canvas.Screen,0_5_5_3,2022-07-15T22:02:05.010Z,,,,,,6,NaN,skipped,,,0.485,,,,,,,,,,,,,,,,,0.455,true,213481.30000000075,213477.165,,213480.90000000037,,213526.707,,,
ITI,canvas.Screen,0_5_5_4,2022-07-15T22:02:05.541Z,,,,,,6,583.4800000000105,timeout,,,0.485,,,,,,,,,,,,,,,,,0.455,true,214012,214010.716,213477.165,213481.40000000037,213526.707,214110.187,,,
trial,flow.Sequence,0_5_5,2022-07-15T22:02:05.542Z,,,,,,6,3918.2539999999863,completion,,,0.485,,,,,,,,,,,,,,,,,0.455,true,214012.59999999963,214010.716,209992.916,209994.80000000075,210092.462,214110.187,,,
fixation,canvas.Screen,0_5_6_0,2022-07-15T22:02:06.124Z,,,,,,9,583.4890000000014,timeout,,,0.485,,,,,,,,,,,,,,,,,0.53,true,214595.19999999925,214594.142,214010.716,214012.80000000075,214110.187,214693.676,,,
stimulus,canvas.Screen,0_5_6_1,2022-07-15T22:02:06.967Z,,,,,,9,741.6240000007383,response,,0.53,0.485,,,https://raw.githubusercontent.com/carero2/loss-perception/main/png/0.53blue1yellowb%3D1w%3D100v%3D19.png,https://raw.githubusercontent.com/carero2/loss-perception/main/png/0.485blue1yellowb%3D1w%3D100v%3D19.png,,,,,,,,,true,j,keypress(j),0.485,0.53,true,215437.90000000037,215435.30000000075,214594.142,214595.59999999963,214693.676,215543.937,,,
choice,canvas.Screen,0_5_6_2,2022-07-15T22:02:09.059Z,,,,0.485,,9,2033.8830000000016,timeout,,,0.485,,0.53,,,3,,,,,,,21,,,,,0.53,true,217529.40000000037,217528.315,215427.263,215443.30000000075,215543.937,217577.82,,121,
timeout,canvas.Screen,0_5_6_3,2022-07-15T22:02:09.062Z,,,,,,9,NaN,skipped,,,0.485,,,,,,,,,,,,,,,,,0.53,true,217532.5,217528.315,,217532.19999999925,,217577.82,,,
ITI,canvas.Screen,0_5_6_4,2022-07-15T22:02:09.592Z,,,,,,9,583.4579999999842,timeout,,,0.485,,,,,,,,,,,,,,,,,0.53,true,218062.80000000075,218061.724,217528.315,217532.69999999925,217577.82,218161.278,,,
trial,flow.Sequence,0_5_6,2022-07-15T22:02:09.593Z,,,,,,9,3951.536999999982,completion,,,0.485,,,,,,,,,,,,,,,,,0.53,true,218063.40000000037,218061.724,214010.716,214012.69999999925,214110.187,218161.278,,,
fixation,canvas.Screen,0_5_7_0,2022-07-15T22:02:10.185Z,,,,,,12,600.1590000000142,timeout,,,0.53,,,,,,,,,,,,,,,,,0.47,false,218656.19999999925,218644.737,218061.724,218063.59999999963,218161.278,218761.437,,,
stimulus,canvas.Screen,0_5_7_1,2022-07-15T22:02:10.984Z,,,,,,12,690.2629999992496,response,,0.53,0.53,,,https://raw.githubusercontent.com/carero2/loss-perception/main/png/0.53blue1yellowb%3D1w%3D100v%3D23.png,https://raw.githubusercontent.com/carero2/loss-perception/main/png/0.47blue1yellowb%3D1w%3D100v%3D23.png,,,,,,,,,true,j,keypress(j),0.47,0.47,false,219454.40000000037,219451.69999999925,218644.737,218656.59999999963,218761.437,219561.656,,,
choice,canvas.Screen,0_5_7_2,2022-07-15T22:02:13.076Z,,,,0.47,,12,2050.591000000015,timeout,,,0.53,,0.53,,,6,,,,,,,27,,,,,0.47,false,221547.09999999963,221546.015,219445.089,219459.40000000037,219561.656,221612.247,,127,
timeout,canvas.Screen,0_5_7_3,2022-07-15T22:02:13.079Z,,,,,,12,NaN,skipped,,,0.53,,,,,,,,,,,,,,,,,0.47,false,221549.69999999925,221546.015,,221549.59999999963,,221612.247,,,
ITI,canvas.Screen,0_5_7_4,2022-07-15T22:02:13.626Z,,,,,,12,583.494000000006,timeout,,,0.53,,,,,,,,,,,,,,,,,0.47,false,222097.19999999925,222096.132,221546.015,221549.80000000075,221612.247,222195.741,,,
trial,flow.Sequence,0_5_7,2022-07-15T22:02:13.627Z,,,,,,12,3934.854000000021,completion,,,0.53,,,,,,,,,,,,,,,,,0.47,false,222097.69999999925,222096.132,218061.724,218063.59999999963,218161.278,222195.741,,,
fixation,canvas.Screen,0_5_8_0,2022-07-15T22:02:14.210Z,,,,,,6,583.4429999999993,timeout,,,0.515,,,,,,,,,,,,,,,,,0.485,false,222680.69999999925,222679.706,222096.132,222098,222195.741,222779.184,,,
stimulus,canvas.Screen,0_5_8_1,2022-07-15T22:02:14.960Z,,,,,,6,649.0159999992466,response,,0.515,0.515,,,https://raw.githubusercontent.com/carero2/loss-perception/main/png/0.515blue1yellowb%3D1w%3D100v%3D59.png,https://raw.githubusercontent.com/carero2/loss-perception/main/png/0.485blue1yellowb%3D1w%3D100v%3D59.png,,,,,,,,,true,j,keypress(j),0.485,0.485,false,223430.59999999963,223428.19999999925,222679.706,222681.09999999963,222779.184,223529.425,,,
choice,canvas.Screen,0_5_8_2,2022-07-15T22:02:17.044Z,,,,0.485,,6,2083.872000000003,timeout,,,0.515,,0.515,,,3,,,,,,,30,,,,,0.485,false,225514.90000000037,225513.809,223429.493,223436,223529.425,225613.297,,130,
timeout,canvas.Screen,0_5_8_3,2022-07-15T22:02:17.047Z,,,,,,6,NaN,skipped,,,0.515,,,,,,,,,,,,,,,,,0.485,false,225518,225513.809,,225517.69999999925,,225613.297,,,
ITI,canvas.Screen,0_5_8_4,2022-07-15T22:02:17.628Z,,,,,,6,583.5180000000109,timeout,,,0.515,,,,,,,,,,,,,,,,,0.485,false,226098.40000000037,226097.27,225513.809,225518.19999999925,225613.297,226196.815,,,
trial,flow.Sequence,0_5_8,2022-07-15T22:02:17.628Z,,,,,,6,3901.5289999999804,completion,,,0.515,,,,,,,,,,,,,,,,,0.485,false,226099.09999999963,226097.27,222096.132,222097.90000000037,222195.741,226196.815,,,
fixation,canvas.Screen,0_5_9_0,2022-07-15T22:02:18.211Z,,,,,,6,583.4949999999953,timeout,,,0.485,,,,,,,,,,,,,,,,,0.455,false,226681.69999999925,226680.65,226097.27,226099.40000000037,226196.815,226780.31,,,
stimulus,canvas.Screen,0_5_9_1,2022-07-15T22:02:19.027Z,,,,,,6,715.0900000003749,response,,0.485,0.485,,,https://raw.githubusercontent.com/carero2/loss-perception/main/png/0.485blue1yellowb%3D1w%3D100v%3D41.png,https://raw.githubusercontent.com/carero2/loss-perception/main/png/0.455blue1yellowb%3D1w%3D100v%3D41.png,,,,,,,,,true,j,keypress(j),0.455,0.455,false,227498,227495.40000000037,226680.65,226682,226780.31,227597.191,,,
choice,canvas.Screen,0_5_9_2,2022-07-15T22:02:21.112Z,,,,0.455,,6,2033.8129999999946,timeout,,,0.485,,0.485,,,9,,,,,,,39,,,,,0.455,false,229582.90000000037,229581.583,227497.253,227503,227597.191,229631.004,,139,
timeout,canvas.Screen,0_5_9_3,2022-07-15T22:02:21.115Z,,,,,,6,NaN,skipped,,,0.485,,,,,,,,,,,,,,,,,0.455,false,229586.19999999925,229581.583,,229585.80000000075,,229631.004,,,
ITI,canvas.Screen,0_5_9_4,2022-07-15T22:02:21.645Z,,,,,,6,583.5630000000237,timeout,,,0.485,,,,,,,,,,,,,,,,,0.455,false,230116.09999999963,230115.002,229581.583,229586.30000000075,229631.004,230214.567,,,
trial,flow.Sequence,0_5_9,2022-07-15T22:02:21.646Z,,,,,,6,3918.1870000000054,completion,,,0.485,,,,,,,,,,,,,,,,,0.455,false,230116.59999999963,230115.002,226097.27,226099.19999999925,226196.815,230214.567,,,
fixation,canvas.Screen,0_5_10_0,2022-07-15T22:02:22.229Z,,,,,,18,583.49099999998,timeout,,,0.545,,,,,,,,,,,,,,,,,0.455,false,230699.59999999963,230698.497,230115.002,230116.90000000037,230214.567,230798.058,,,
stimulus,canvas.Screen,0_5_10_1,2022-07-15T22:02:22.903Z,,,,,,18,573.44200000001,response,,0.545,0.545,,,https://raw.githubusercontent.com/carero2/loss-perception/main/png/0.545blue1yellowb%3D1w%3D100v%3D23.png,https://raw.githubusercontent.com/carero2/loss-perception/main/png/0.455blue1yellowb%3D1w%3D100v%3D23.png,,,,,,,,,true,j,keypress(j),0.455,0.455,false,231374.09999999963,231371.5,230698.497,230700,230798.058,231481.599,,,
choice,canvas.Screen,0_5_10_2,2022-07-15T22:02:24.996Z,,,,0.455,,18,2083.8340000000026,timeout,,,0.545,,0.545,,,9,,,,,,,48,,,,,0.455,false,233467.19999999925,233465.908,231365.257,231379.30000000075,231481.599,233565.433,,148,
timeout,canvas.Screen,0_5_10_3,2022-07-15T22:02:25.000Z,,,,,,18,NaN,skipped,,,0.545,,,,,,,,,,,,,,,,,0.455,false,233470.5,233465.908,,233470.19999999925,,233565.433,,,
ITI,canvas.Screen,0_5_10_4,2022-07-15T22:02:25.580Z,,,,,,18,583.5280000000203,timeout,,,0.545,,,,,,,,,,,,,,,,,0.455,false,234050.59999999963,234049.475,233465.908,233470.69999999925,233565.433,234148.961,,,
trial,flow.Sequence,0_5_10,2022-07-15T22:02:25.581Z,,,,,,18,3834.907999999996,completion,,,0.545,,,,,,,,,,,,,,,,,0.455,false,234051.40000000037,234049.475,230115.002,230116.80000000075,230214.567,234148.961,,,
fixation,canvas.Screen,0_5_11_0,2022-07-15T22:02:26.163Z,,,,,,6,583.4890000000014,timeout,,,0.545,,,,,,,,,,,,,,,,,0.515,false,234634.09999999963,234632.957,234049.475,234051.69999999925,234148.961,234732.45,,,
stimulus,canvas.Screen,0_5_11_1,2022-07-15T22:02:26.796Z,,,,,,6,531.2499999992433,response,,0.545,0.545,,,https://raw.githubusercontent.com/carero2/loss-perception/main/png/0.545blue1yellowb%3D1w%3D100v%3D75.png,https://raw.githubusercontent.com/carero2/loss-perception/main/png/0.515blue1yellowb%3D1w%3D100v%3D75.png,,,,,,,,,true,j,keypress(j),0.515,0.515,false,235266.30000000075,235263.69999999925,234632.957,234634.5,234732.45,235365.955,,,
choice,canvas.Screen,0_5_11_2,2022-07-15T22:02:28.881Z,,,,0.515,,6,2033.8480000000272,timeout,,,0.545,,0.545,,,-3,,,,,,,45,,,,,0.515,false,237351.40000000037,237350.31,235266.03,235271.30000000075,235365.955,237399.803,,145,
timeout,canvas.Screen,0_5_11_3,2022-07-15T22:02:28.884Z,,,,,,6,NaN,skipped,,,0.545,,,,,,,,,,,,,,,,,0.515,false,237354.30000000075,237350.31,,237354,,237399.803,,,
ITI,canvas.Screen,0_5_11_4,2022-07-15T22:02:29.414Z,,,,,,6,583.5259999999835,timeout,,,0.545,,,,,,,,,,,,,,,,,0.515,false,237884.90000000037,237883.793,237350.31,237354.5,237399.803,237983.329,,,
trial,flow.Sequence,0_5_11,2022-07-15T22:02:29.415Z,,,,,,6,3734.831999999995,completion,,,0.545,,,,,,,,,,,,,,,,,0.515,false,237885.40000000037,237883.793,234049.475,234051.5,234148.961,237983.329,,,
fixation,canvas.Screen,0_5_12_0,2022-07-15T22:02:29.998Z,,,,,,6,583.445000000007,timeout,,,0.545,,,,,,,,,,,,,,,,,0.515,true,238468.90000000037,238466.844,237883.793,237885.69999999925,237983.329,238566.774,,,
stimulus,canvas.Screen,0_5_12_1,2022-07-15T22:02:30.847Z,,,,,,6,748.6260000003676,response,,0.515,0.545,,,https://raw.githubusercontent.com/carero2/loss-perception/main/png/0.515blue1yellowb%3D1w%3D100v%3D71.png,https://raw.githubusercontent.com/carero2/loss-perception/main/png/0.545blue1yellowb%3D1w%3D100v%3D71.png,,,,,,,,,true,f,keypress(f),0.545,0.515,true,239318.09999999963,239315.40000000037,238466.844,238469.19999999925,238566.774,239417.05,,,
choice,canvas.Screen,0_5_12_2,2022-07-15T22:02:32.932Z,,,,0.515,,6,2083.902000000002,timeout,,,0.545,,0.545,,,-3,,,,,,,42,,,,,0.515,true,241402.59999999963,241401.449,239317.126,239323.69999999925,239417.05,241500.952,,142,
timeout,canvas.Screen,0_5_12_3,2022-07-15T22:02:32.935Z,,,,,,6,NaN,skipped,,,0.545,,,,,,,,,,,,,,,,,0.515,true,241405.59999999963,241401.449,,241405.30000000075,,241500.952,,,
ITI,canvas.Screen,0_5_12_4,2022-07-15T22:02:33.515Z,,,,,,6,583.4560000000056,timeout,,,0.545,,,,,,,,,,,,,,,,,0.515,true,241985.90000000037,241984.897,241401.449,241405.80000000075,241500.952,242084.408,,,
trial,flow.Sequence,0_5_12,2022-07-15T22:02:33.516Z,,,,,,6,4001.5679999999993,completion,,,0.545,,,,,,,,,,,,,,,,,0.515,true,241986.5,241984.897,237883.793,237885.59999999963,237983.329,242084.408,,,
fixation,canvas.Screen,0_5_13_0,2022-07-15T22:02:34.099Z,,,,,,6,583.4869999999937,timeout,,,0.485,,,,,,,,,,,,,,,,,0.455,false,242569.5,242568.365,241984.897,241986.80000000075,242084.408,242667.895,,,
stimulus,canvas.Screen,0_5_13_1,2022-07-15T22:02:34.684Z,,,,,,6,484.1050000000105,response,,0.485,0.485,,,https://raw.githubusercontent.com/carero2/loss-perception/main/png/0.485blue1yellowb%3D1w%3D100v%3D34.png,https://raw.githubusercontent.com/carero2/loss-perception/main/png/0.455blue1yellowb%3D1w%3D100v%3D34.png,,,,,,,,,true,j,keypress(j),0.455,0.455,false,243154.5,243152,242568.365,242569.69999999925,242667.895,243251.429,,,
choice,canvas.Screen,0_5_13_2,2022-07-15T22:02:36.766Z,,,,0.455,,6,2033.8280000000086,timeout,,,0.485,,0.485,,,9,,,,,,,51,,,,,0.455,false,245236.80000000075,245235.624,243151.497,243159.40000000037,243251.429,245285.257,,151,
timeout,canvas.Screen,0_5_13_3,2022-07-15T22:02:36.769Z,,,,,,6,NaN,skipped,,,0.485,,,,,,,,,,,,,,,,,0.455,false,245239.5,245235.624,,245239.30000000075,,245285.257,,,
ITI,canvas.Screen,0_5_13_4,2022-07-15T22:02:37.300Z,,,,,,6,583.5380000000005,timeout,,,0.485,,,,,,,,,,,,,,,,,0.455,false,245770.30000000075,245769.287,245235.624,245239.80000000075,245285.257,245868.795,,,
trial,flow.Sequence,0_5_13,2022-07-15T22:02:37.300Z,,,,,,6,3684.8790000000154,completion,,,0.485,,,,,,,,,,,,,,,,,0.455,false,245770.90000000037,245769.287,241984.897,241986.69999999925,242084.408,245868.795,,,
fixation,canvas.Screen,0_5_14_0,2022-07-15T22:02:37.883Z,,,,,,9,583.4499999999825,timeout,,,0.485,,,,,,,,,,,,,,,,,0.53,true,246353.80000000075,246352.702,245769.287,245771.19999999925,245868.795,246452.245,,,
stimulus,canvas.Screen,0_5_14_1,2022-07-15T22:02:38.622Z,,,,,,9,637.5550000007497,response,,0.53,0.485,,,https://raw.githubusercontent.com/carero2/loss-perception/main/png/0.53blue1yellowb%3D1w%3D100v%3D82.png,https://raw.githubusercontent.com/carero2/loss-perception/main/png/0.485blue1yellowb%3D1w%3D100v%3D82.png,,,,,,,,,true,j,keypress(j),0.485,0.53,true,247092.90000000037,247089.80000000075,246352.702,246354.19999999925,246452.245,247185.819,,,
choice,canvas.Screen,0_5_14_2,2022-07-15T22:02:40.701Z,,,,0.485,,9,2033.841000000015,timeout,,,0.485,,0.53,,,3,,,,,,,54,,,,,0.53,true,249171.30000000075,249170.211,247086.166,247098.09999999963,247185.819,249219.66,,154,
timeout,canvas.Screen,0_5_14_3,2022-07-15T22:02:40.704Z,,,,,,9,NaN,skipped,,,0.485,,,,,,,,,,,,,,,,,0.53,true,249174.30000000075,249170.211,,249174,,249219.66,,,
ITI,canvas.Screen,0_5_14_4,2022-07-15T22:02:41.234Z,,,,,,9,583.5380000000005,timeout,,,0.485,,,,,,,,,,,,,,,,,0.53,true,249704.80000000075,249703.688,249170.211,249174.5,249219.66,249803.198,,,
trial,flow.Sequence,0_5_14,2022-07-15T22:02:41.235Z,,,,,,9,3834.892999999982,completion,,,0.485,,,,,,,,,,,,,,,,,0.53,true,249705.5,249703.688,245769.287,245771.09999999963,245868.795,249803.198,,,
fixation,canvas.Screen,0_5_15_0,2022-07-15T22:02:41.818Z,,,,,,12,583.484999999986,timeout,,,0.53,,,,,,,,,,,,,,,,,0.47,true,250288.30000000075,250287.176,249703.688,249705.69999999925,249803.198,250386.683,,,
stimulus,canvas.Screen,0_5_15_1,2022-07-15T22:02:42.614Z,,,,,,12,694.9169999996375,response,,0.47,0.53,,,https://raw.githubusercontent.com/carero2/loss-perception/main/png/0.47blue1yellowb%3D1w%3D100v%3D97.png,https://raw.githubusercontent.com/carero2/loss-perception/main/png/0.53blue1yellowb%3D1w%3D100v%3D97.png,,,,,,,,,true,f,keypress(f),0.53,0.47,true,251084.40000000037,251081.59999999963,250287.176,250288.59999999963,250386.683,251186.901,,,
choice,canvas.Screen,0_5_15_2,2022-07-15T22:02:44.702Z,,,,0.47,,12,2033.8119999999763,timeout,,,0.53,,0.53,,,6,,,,,,,60,,,,,0.47,true,253172.40000000037,253171.255,251086.956,251089.30000000075,251186.901,253220.713,,160,
timeout,canvas.Screen,0_5_15_3,2022-07-15T22:02:44.704Z,,,,,,12,NaN,skipped,,,0.53,,,,,,,,,,,,,,,,,0.47,true,253175.19999999925,253171.255,,253174.90000000037,,253220.713,,,
ITI,canvas.Screen,0_5_15_4,2022-07-15T22:02:45.234Z,,,,,,12,583.5360000000219,timeout,,,0.53,,,,,,,,,,,,,,,,,0.47,true,253705.19999999925,253704.261,253171.255,253175.40000000037,253220.713,253804.249,,,
trial,flow.Sequence,0_5_15,2022-07-15T22:02:45.235Z,,,,,,12,3901.0629999999946,completion,,,0.53,,,,,,,,,,,,,,,,,0.47,true,253705.69999999925,253704.261,249703.688,249705.69999999925,249803.198,253804.249,,,
fixation,canvas.Screen,0_5_16_0,2022-07-15T22:02:45.819Z,,,,,,18,583.4799999999814,timeout,,,0.545,,,,,,,,,,,,,,,,,0.455,false,254289.5,254288.256,253704.261,253706.09999999963,253804.249,254387.729,,,
stimulus,canvas.Screen,0_5_16_1,2022-07-15T22:02:46.368Z,,,,,,18,448.2710000000079,response,,0.545,0.545,,,https://raw.githubusercontent.com/carero2/loss-perception/main/png/0.545blue1yellowb%3D1w%3D100v%3D52.png,https://raw.githubusercontent.com/carero2/loss-perception/main/png/0.455blue1yellowb%3D1w%3D100v%3D52.png,,,,,,,,,true,j,keypress(j),0.455,0.455,false,254838.59999999963,254836,254288.256,254289.80000000075,254387.729,254937.923,,,
choice,canvas.Screen,0_5_16_2,2022-07-15T22:02:48.453Z,,,,0.455,,18,2083.8489999999874,timeout,,,0.545,,0.545,,,9,,,,,,,69,,,,,0.455,false,256923.40000000037,256922.293,254837.942,254843.90000000037,254937.923,257021.772,,169,
timeout,canvas.Screen,0_5_16_3,2022-07-15T22:02:48.456Z,,,,,,18,NaN,skipped,,,0.545,,,,,,,,,,,,,,,,,0.455,false,256926.40000000037,256922.293,,256926.09999999963,,257021.772,,,
ITI,canvas.Screen,0_5_16_4,2022-07-15T22:02:49.036Z,,,,,,18,583.5070000000123,timeout,,,0.545,,,,,,,,,,,,,,,,,0.455,false,257506.80000000075,257505.734,256922.293,256926.59999999963,257021.772,257605.279,,,
trial,flow.Sequence,0_5_16,2022-07-15T22:02:49.037Z,,,,,,18,3701.484999999986,completion,,,0.545,,,,,,,,,,,,,,,,,0.455,false,257507.19999999925,257505.734,253704.261,253705.90000000037,253804.249,257605.279,,,
fixation,canvas.Screen,0_5_17_0,2022-07-15T22:02:49.620Z,,,,,,6,583.4799999999814,timeout,,,0.515,,,,,,,,,,,,,,,,,0.485,true,258090.40000000037,258089.208,257505.734,257507.5,257605.279,258188.759,,,
stimulus,canvas.Screen,0_5_17_1,2022-07-15T22:02:50.424Z,,,,,,6,703.6410000003816,response,,0.485,0.515,,,https://raw.githubusercontent.com/carero2/loss-perception/main/png/0.485blue1yellowb%3D1w%3D100v%3D94.png,https://raw.githubusercontent.com/carero2/loss-perception/main/png/0.515blue1yellowb%3D1w%3D100v%3D94.png,,,,,,,,,true,f,keypress(f),0.515,0.485,true,258895.09999999963,258892.40000000037,258089.208,258090.69999999925,258188.759,258988.988,,,
choice,canvas.Screen,0_5_17_2,2022-07-15T22:02:52.504Z,,,,0.485,,6,2050.533999999985,timeout,,,0.515,,0.515,,,3,,,,,,,72,,,,,0.485,true,260974.40000000037,260973.339,258889.427,258900,258988.988,261039.522,,172,
timeout,canvas.Screen,0_5_17_3,2022-07-15T22:02:52.506Z,,,,,,6,NaN,skipped,,,0.515,,,,,,,,,,,,,,,,,0.485,true,260977.09999999963,260973.339,,260976.90000000037,,261039.522,,,
ITI,canvas.Screen,0_5_17_4,2022-07-15T22:02:53.054Z,,,,,,6,583.4949999999953,timeout,,,0.515,,,,,,,,,,,,,,,,,0.485,true,261524.59999999963,261523.483,260973.339,260977.09999999963,261039.522,261623.017,,,
trial,flow.Sequence,0_5_17,2022-07-15T22:02:53.054Z,,,,,,6,3918.203999999998,completion,,,0.515,,,,,,,,,,,,,,,,,0.485,true,261525.09999999963,261523.483,257505.734,257507.40000000037,257605.279,261623.017,,,
fixation,canvas.Screen,0_5_18_0,2022-07-15T22:02:53.638Z,,,,,,6,583.5260000000126,timeout,,,0.485,,,,,,,,,,,,,,,,,0.455,false,262108.19999999925,262106.984,261523.483,261525.40000000037,261623.017,262206.543,,,
stimulus,canvas.Screen,0_5_18_1,2022-07-15T22:02:54.247Z,,,,,,6,508.75700000073994,response,,0.485,0.485,,,https://raw.githubusercontent.com/carero2/loss-perception/main/png/0.485blue1yellowb%3D1w%3D100v%3D36.png,https://raw.githubusercontent.com/carero2/loss-perception/main/png/0.455blue1yellowb%3D1w%3D100v%3D36.png,,,,,,,,,true,j,keypress(j),0.455,0.455,false,262717.9000000004,262715.30000000075,262106.984,262108.59999999963,262206.543,262806.669,,,
choice,canvas.Screen,0_5_18_2,2022-07-15T22:02:56.325Z,,,,0.455,,6,2117.244000000006,timeout,,,0.485,,0.485,,,9,,,,,,,81,,,,,0.455,false,264795.4000000004,264790.548,262723.458,262723.0999999996,262806.669,264923.913,,181,
timeout,canvas.Screen,0_5_18_3,2022-07-15T22:02:56.328Z,,,,,,6,NaN,skipped,,,0.485,,,,,,,,,,,,,,,,,0.455,false,264798.30000000075,264790.548,,264798,,264923.913,,,
ITI,canvas.Screen,0_5_18_4,2022-07-15T22:02:56.938Z,,,,,,6,583.5200000000186,timeout,,,0.485,,,,,,,,,,,,,,,,,0.455,false,265409.19999999925,265407.929,264790.548,264798.5999999996,264923.913,265507.433,,,
trial,flow.Sequence,0_5_18,2022-07-15T22:02:56.939Z,,,,,,6,3784.912000000011,completion,,,0.485,,,,,,,,,,,,,,,,,0.455,false,265409.80000000075,265407.929,261523.483,261525.19999999925,261623.017,265507.433,,,
fixation,canvas.Screen,0_5_19_0,2022-07-15T22:02:57.531Z,,,,,,6,583.4869999999646,timeout,,,0.545,,,,,,,,,,,,,,,,,0.515,true,266001.69999999925,265990.932,265407.929,265410.0999999996,265507.433,266090.92,,,
stimulus,canvas.Screen,0_5_19_1,2022-07-15T22:02:58.304Z,,,,,,6,680.6799999996438,response,,0.515,0.545,,,https://raw.githubusercontent.com/carero2/loss-perception/main/png/0.515blue1yellowb%3D1w%3D100v%3D79.png,https://raw.githubusercontent.com/carero2/loss-perception/main/png/0.545blue1yellowb%3D1w%3D100v%3D79.png,,,,,,,,,true,f,keypress(f),0.545,0.515,true,266774.30000000075,266771.5999999996,265990.932,266002,266090.92,266874.473,,,
choice,canvas.Screen,0_5_19_2,2022-07-15T22:03:00.389Z,,,,0.515,,6,2083.857000000018,timeout,,,0.545,,0.545,,,-3,,,,,,,78,,,,,0.515,true,268860.0999999996,268858.856,266774.541,266780,266874.473,268958.33,,178,
timeout,canvas.Screen,0_5_19_3,2022-07-15T22:03:00.393Z,,,,,,6,NaN,skipped,,,0.545,,,,,,,,,,,,,,,,,0.515,true,268863.30000000075,268858.856,,268863,,268958.33,,,
ITI,canvas.Screen,0_5_19_4,2022-07-15T22:03:00.973Z,,,,,,6,583.5270000000019,timeout,,,0.545,,,,,,,,,,,,,,,,,0.515,true,269443.5999999996,269442.382,268858.856,268863.5,268958.33,269541.857,,,
trial,flow.Sequence,0_5_19,2022-07-15T22:03:00.974Z,,,,,,6,3934.948999999964,completion,,,0.545,,,,,,,,,,,,,,,,,0.515,true,269444.19999999925,269442.382,265407.929,265410,265507.433,269541.857,,,
fixation,canvas.Screen,0_5_20_0,2022-07-15T22:03:01.556Z,,,,,,9,583.4959999999846,timeout,,,0.485,,,,,,,,,,,,,,,,,0.53,true,270026.9000000004,270025.832,269442.382,269444.5999999996,269541.857,270125.353,,,
stimulus,canvas.Screen,0_5_20_1,2022-07-15T22:03:02.137Z,,,,,,9,479.7469999996247,response,,0.53,0.485,,,https://raw.githubusercontent.com/carero2/loss-perception/main/png/0.53blue1yellowb%3D1w%3D100v%3D60.png,https://raw.githubusercontent.com/carero2/loss-perception/main/png/0.485blue1yellowb%3D1w%3D100v%3D60.png,,,,,,,,,true,j,keypress(j),0.485,0.53,true,270607.80000000075,270605.0999999996,270025.832,270027.0999999996,270125.353,270708.806,,,
choice,canvas.Screen,0_5_20_2,2022-07-15T22:03:04.224Z,,,,0.485,,9,2033.9020000000019,timeout,,,0.485,,0.53,,,3,,,,,,,81,,,,,0.53,true,272694.5,272693.21,270608.917,270613.5,270708.806,272742.708,,181,
timeout,canvas.Screen,0_5_20_3,2022-07-15T22:03:04.227Z,,,,,,9,NaN,skipped,,,0.485,,,,,,,,,,,,,,,,,0.53,true,272697.9000000004,272693.21,,272697.5,,272742.708,,,
ITI,canvas.Screen,0_5_20_4,2022-07-15T22:03:04.757Z,,,,,,9,583.5119999999879,timeout,,,0.485,,,,,,,,,,,,,,,,,0.53,true,273227.80000000075,273226.686,272693.21,272698,272742.708,273326.22,,,
trial,flow.Sequence,0_5_20,2022-07-15T22:03:04.758Z,,,,,,9,3684.828999999969,completion,,,0.485,,,,,,,,,,,,,,,,,0.53,true,273228.5,273226.686,269442.382,269444.4000000004,269541.857,273326.22,,,
fixation,canvas.Screen,0_5_21_0,2022-07-15T22:03:05.341Z,,,,,,6,583.4830000000075,timeout,,,0.515,,,,,,,,,,,,,,,,,0.485,false,273811.30000000075,273810.163,273226.686,273228.80000000075,273326.22,273909.703,,,
stimulus,canvas.Screen,0_5_21_1,2022-07-15T22:03:06.214Z,,,,,,6,772.197000000393,response,,0.515,0.515,,,https://raw.githubusercontent.com/carero2/loss-perception/main/png/0.515blue1yellowb%3D1w%3D100v%3D95.png,https://raw.githubusercontent.com/carero2/loss-perception/main/png/0.485blue1yellowb%3D1w%3D100v%3D95.png,,,,,,,,,true,j,keypress(j),0.485,0.485,false,274684.4000000004,274681.9000000004,273810.163,273811.69999999925,273909.703,274793.293,,,
choice,canvas.Screen,0_5_21_2,2022-07-15T22:03:08.308Z,,,,0.485,,6,2083.8859999999986,timeout,,,0.515,,0.515,,,3,,,,,,,84,,,,,0.485,false,276778.69999999925,276777.613,274676.671,274689.30000000075,274793.293,276877.179,,184,
timeout,canvas.Screen,0_5_21_3,2022-07-15T22:03:08.311Z,,,,,,6,NaN,skipped,,,0.515,,,,,,,,,,,,,,,,,0.485,false,276781.5999999996,276777.613,,276781.30000000075,,276877.179,,,
ITI,canvas.Screen,0_5_21_4,2022-07-15T22:03:08.891Z,,,,,,6,583.4959999999846,timeout,,,0.515,,,,,,,,,,,,,,,,,0.485,false,277362.30000000075,277361.091,276777.613,276781.80000000075,276877.179,277460.675,,,
trial,flow.Sequence,0_5_21,2022-07-15T22:03:08.892Z,,,,,,6,4034.871000000043,completion,,,0.515,,,,,,,,,,,,,,,,,0.485,false,277362.9000000004,277361.091,273226.686,273228.69999999925,273326.22,277460.675,,,
fixation,canvas.Screen,0_5_22_0,2022-07-15T22:03:09.475Z,,,,,,12,583.4440000000177,timeout,,,0.53,,,,,,,,,,,,,,,,,0.47,false,277945.69999999925,277944.568,277361.091,277363.0999999996,277460.675,278044.119,,,
stimulus,canvas.Screen,0_5_22_1,2022-07-15T22:03:10.146Z,,,,,,12,569.4809999996214,response,,0.53,0.53,,,https://raw.githubusercontent.com/carero2/loss-perception/main/png/0.53blue1yellowb%3D1w%3D100v%3D75.png,https://raw.githubusercontent.com/carero2/loss-perception/main/png/0.47blue1yellowb%3D1w%3D100v%3D75.png,,,,,,,,,true,j,keypress(j),0.47,0.47,false,278616.4000000004,278613.5999999996,277944.568,277946,278044.119,278711.021,,,
choice,canvas.Screen,0_5_22_2,2022-07-15T22:03:12.226Z,,,,0.47,,12,2033.816999999981,timeout,,,0.53,,0.53,,,6,,,,,,,90,,,,,0.47,false,280696.5,280695.39,278611.079,278621.80000000075,278711.021,280744.838,,190,
timeout,canvas.Screen,0_5_22_3,2022-07-15T22:03:12.229Z,,,,,,12,NaN,skipped,,,0.53,,,,,,,,,,,,,,,,,0.47,false,280699.5,280695.39,,280699.30000000075,,280744.838,,,
ITI,canvas.Screen,0_5_22_4,2022-07-15T22:03:12.759Z,,,,,,12,583.5380000000005,timeout,,,0.53,,,,,,,,,,,,,,,,,0.47,false,281230,281228.859,280695.39,280699.69999999925,280744.838,281328.376,,,
trial,flow.Sequence,0_5_22,2022-07-15T22:03:12.760Z,,,,,,12,3768.1840000000084,completion,,,0.53,,,,,,,,,,,,,,,,,0.47,false,281230.5999999996,281228.859,277361.091,277363.0999999996,277460.675,281328.376,,,
fixation,canvas.Screen,0_5_23_0,2022-07-15T22:03:13.343Z,,,,,,18,600.179999999993,timeout,,,0.545,,,,,,,,,,,,,,,,,0.455,true,281813.5999999996,281812.355,281228.859,281231,281328.376,281928.556,,,
stimulus,canvas.Screen,0_5_23_1,2022-07-15T22:03:13.954Z,,,,,,18,493.04399999964517,response,,0.455,0.545,,,https://raw.githubusercontent.com/carero2/loss-perception/main/png/0.455blue1yellowb%3D1w%3D100v%3D53.png,https://raw.githubusercontent.com/carero2/loss-perception/main/png/0.545blue1yellowb%3D1w%3D100v%3D53.png,,,,,,,,,true,f,keypress(f),0.545,0.455,true,282424.30000000075,282421.5999999996,281812.355,281813.9000000004,281928.556,282528.705,,,
choice,canvas.Screen,0_5_23_2,2022-07-15T22:03:16.043Z,,,,0.455,,18,2050.54800000001,timeout,,,0.545,,0.545,,,9,,,,,,,99,,,,,0.455,true,284514.0999999996,284512.978,282428.776,282429.5,282528.705,284579.253,,199,
timeout,canvas.Screen,0_5_23_3,2022-07-15T22:03:16.046Z,,,,,,18,NaN,skipped,,,0.545,,,,,,,,,,,,,,,,,0.455,true,284516.9000000004,284512.978,,284516.5999999996,,284579.253,,,
ITI,canvas.Screen,0_5_23_4,2022-07-15T22:03:16.594Z,,,,,,18,533.5,timeout,,,0.545,,,,,,,,,,,,,,,,,0.455,true,285064.30000000075,285063.225,284512.978,284517.0999999996,284579.253,285112.753,,,
trial,flow.Sequence,0_5_23,2022-07-15T22:03:16.594Z,,,,,,18,3734.8489999999874,completion,,,0.545,,,,,,,,,,,,,,,,,0.455,true,285064.9000000004,285063.225,281228.859,281230.9000000004,281328.376,285112.753,,,
pratice,flow.Loop,0_5,2022-07-15T22:03:16.594Z,,,,,,,97776.95799999998,completion,,,,,,,,,,,,,,,,,,,,,,285065.0999999996,285063.225,187220.096,187230.30000000075,187286.267,285112.753,,,
show amount,html.Screen,0_6,2022-07-15T22:03:39.211Z,,,,,,,22563.647000000346,response,,,,,,,,,,,,,,,,,Continue,click #Continue,,,,307682,307676.4000000004,285063.225,285067.30000000075,285112.753,307785.54,,,
first block,canvas.Screen,0_7,2022-07-15T22:03:41.751Z,,,,,,,2435.460000000021,response,,,,,,,,,,,,,,,,,space,keypress(Space),,,,310221.9000000004,310221,307669.341,307682.19999999925,307785.54,310319.55,,,
fixation,canvas.Screen,0_8_0_0,2022-07-15T22:03:42.334Z,,,,,,2,716.8740000000107,timeout,,,0.515,,,,,,,,,,,,,,,,,0.505,true,310804.5999999996,310803.492,310219.6,310222.4000000004,310319.55,311036.424,,,
stimulus,canvas.Screen,0_8_0_1,2022-07-15T22:03:43.439Z,,,,,,2,872.4760000003735,response,,0.505,0.515,,,https://raw.githubusercontent.com/carero2/loss-perception/main/png/0.505blue1yellowb%3D1w%3D100v%3D86.png,https://raw.githubusercontent.com/carero2/loss-perception/main/png/0.515blue1yellowb%3D1w%3D100v%3D86.png,,,,,,,,,true,f,keypress(f),0.515,0.505,true,311910.30000000075,311908.9000000004,310803.492,311054.5,311036.424,312036.657,,,
choice,canvas.Screen,0_8_0_2,2022-07-15T22:03:44.551Z,,,,0.505,,2,1083.6570000000065,timeout,,,0.515,,0.515,,,-1,-1,,,,,,,,,,,0.505,true,313022,313020.784,311936.592,311946.4000000004,312036.657,313120.314,99,,
ITI,canvas.Screen,0_8_0_3,2022-07-15T22:03:45.134Z,,,2640,,,2,583.4780000000028,timeout,,,0.515,,,,,,,,,,,,,,,,,0.505,true,313605.30000000075,313604.223,313020.784,313022.4000000004,313120.314,313703.792,,,
trial,flow.Sequence,0_8_0,2022-07-15T22:03:45.135Z,,,,,,2,3284.67300000001,completion,,,0.515,,,,,,,,,,,,,,,,,0.505,true,313605.80000000075,313604.223,310219.6,310222.4000000004,310319.55,313703.792,,,
fixation,canvas.Screen,0_8_1_0,2022-07-15T22:03:45.718Z,,,,,,4,1116.9919999999693,timeout,,,0.49,,,,,,,,,,,,,,,,,0.47,false,314188.80000000075,314187.651,313604.223,313606,313703.792,314820.784,,,
stimulus,canvas.Screen,0_8_1_1,2022-07-15T22:03:47.159Z,,,,,,4,807.51600000076,response,,0.49,0.49,,,https://raw.githubusercontent.com/carero2/loss-perception/main/png/0.49blue1yellowb%3D1w%3D100v%3D62.png,https://raw.githubusercontent.com/carero2/loss-perception/main/png/0.47blue1yellowb%3D1w%3D100v%3D62.png,,,,,,,,,true,f,keypress(f),0.47,0.47,false,315630.0999999996,315628.30000000075,314187.651,314837.5999999996,314820.784,315754.325,,,
choice,canvas.Screen,0_8_1_2,2022-07-15T22:03:48.268Z,,,,0.49,,4,1033.6149999999907,timeout,,,0.49,,0.47,,,2,1,,,,,,,,,,,0.47,false,316739.5,316738.386,315654.388,315666.5999999996,315754.325,316787.94,101,,
ITI,canvas.Screen,0_8_1_3,2022-07-15T22:03:48.802Z,,,2412,,,4,600.1539999999804,timeout,,,0.49,,,,,,,,,,,,,,,,,0.47,false,317273,317271.88,316738.386,316740,316787.94,317388.094,,,
trial,flow.Sequence,0_8_1,2022-07-15T22:03:48.803Z,,,,,,4,3568.087999999989,completion,,,0.49,,,,,,,,,,,,,,,,,0.47,false,317273.69999999925,317271.88,313604.223,313606,313703.792,317388.094,,,
fixation,canvas.Screen,0_8_2_0,2022-07-15T22:03:49.402Z,,,,,,4,750.64300000004,timeout,,,0.53,,,,,,,,,,,,,,,,,0.51,true,317873.19999999925,317872.104,317271.88,317274,317388.094,318138.737,,,
stimulus,canvas.Screen,0_8_2_1,2022-07-15T22:03:50.667Z,,,,,,4,997.3629999996047,response,,0.51,0.53,,,https://raw.githubusercontent.com/carero2/loss-perception/main/png/0.51blue1yellowb%3D1w%3D100v%3D12.png,https://raw.githubusercontent.com/carero2/loss-perception/main/png/0.53blue1yellowb%3D1w%3D100v%3D12.png,,,,,,,,,true,f,keypress(f),0.53,0.51,true,319138.0999999996,319136.0999999996,317872.104,318155.5999999996,318138.737,319255.283,,,
choice,canvas.Screen,0_8_2_2,2022-07-15T22:03:51.770Z,,,,0.51,,4,1083.6300000000047,timeout,,,0.53,,0.53,,,-2,-1,,,,,,,,,,,0.51,true,320240.5,320239.392,319172.024,319174.0999999996,319255.283,320338.913,99,,
ITI,canvas.Screen,0_8_2_3,2022-07-15T22:03:52.353Z,,,2784,,,4,583.5050000000047,timeout,,,0.53,,,,,,,,,,,,,,,,,0.51,true,320824.0999999996,320822.849,320239.392,320240.9000000004,320338.913,320922.418,,,
trial,flow.Sequence,0_8_2,2022-07-15T22:03:52.354Z,,,,,,4,3434.7550000000047,completion,,,0.53,,,,,,,,,,,,,,,,,0.51,true,320824.69999999925,320822.849,317271.88,317274,317388.094,320922.418,,,
fixation,canvas.Screen,0_8_3_0,2022-07-15T22:03:52.937Z,,,,,,6,884.0019999999786,timeout,,,0.545,,,,,,,,,,,,,,,,,0.515,false,321407.5,321406.343,320822.849,320825,320922.418,321806.42,,,
stimulus,canvas.Screen,0_8_3_1,2022-07-15T22:03:54.245Z,,,,,,6,907.4800000003888,response,,0.545,0.545,,,https://raw.githubusercontent.com/carero2/loss-perception/main/png/0.545blue1yellowb%3D1w%3D100v%3D4.png,https://raw.githubusercontent.com/carero2/loss-perception/main/png/0.515blue1yellowb%3D1w%3D100v%3D4.png,,,,,,,,,true,j,keypress(j),0.515,0.515,false,322716,322713.9000000004,321406.343,321839.30000000075,321806.42,322839.602,,,
choice,canvas.Screen,0_8_3_2,2022-07-15T22:03:55.355Z,,,,0.515,,6,1083.5839999999735,timeout,,,0.545,,0.545,,,-3,-4,,,,,,,,,,,0.515,false,323826,323823.257,322739.658,322752.0999999996,322839.602,323923.186,96,,
ITI,canvas.Screen,0_8_3_3,2022-07-15T22:03:55.937Z,,,2989,,,6,583.5009999999893,timeout,,,0.545,,,,,,,,,,,,,,,,,0.515,false,324408.30000000075,324407.17,323823.257,323826.30000000075,323923.186,324506.687,,,
trial,flow.Sequence,0_8_3,2022-07-15T22:03:55.938Z,,,,,,6,3484.7519999999786,completion,,,0.545,,,,,,,,,,,,,,,,,0.515,false,324409,324407.17,320822.849,320824.9000000004,320922.418,324506.687,,,
fixation,canvas.Screen,0_8_4_0,2022-07-15T22:03:56.521Z,,,,,,2,866.9079999999958,timeout,,,0.495,,,,,,,,,,,,,,,,,0.485,true,324991.9000000004,324990.706,324407.17,324409.4000000004,324506.687,325373.595,,,
stimulus,canvas.Screen,0_8_4_1,2022-07-15T22:03:57.610Z,,,,,,2,705.3050000004005,response,,0.485,0.495,,,https://raw.githubusercontent.com/carero2/loss-perception/main/png/0.485blue1yellowb%3D1w%3D100v%3D19.png,https://raw.githubusercontent.com/carero2/loss-perception/main/png/0.495blue1yellowb%3D1w%3D100v%3D19.png,,,,,,,,,true,f,keypress(f),0.495,0.485,true,326080.69999999925,326078.9000000004,324990.706,325390.80000000075,325373.595,326207.186,,,
choice,canvas.Screen,0_8_4_2,2022-07-15T22:03:58.722Z,,,,0.485,,2,1033.5370000000112,timeout,,,0.495,,0.495,,,3,-1,,,,,,,,,,,0.485,true,327192.5999999996,327191.336,326107.232,326116.19999999925,326207.186,327240.723,99,,
ITI,canvas.Screen,0_8_4_3,2022-07-15T22:03:59.255Z,,,2867,,,2,583.5540000000037,timeout,,,0.495,,,,,,,,,,,,,,,,,0.485,true,327725.9000000004,327724.725,327191.336,327193,327240.723,327824.277,,,
trial,flow.Sequence,0_8_4,2022-07-15T22:03:59.255Z,,,,,,2,3218.0380000000005,completion,,,0.495,,,,,,,,,,,,,,,,,0.485,true,327726.5,327724.725,324407.17,324409.30000000075,324506.687,327824.277,,,
fixation,canvas.Screen,0_8_5_0,2022-07-15T22:03:59.838Z,,,,,,6,717.4510000000009,timeout,,,0.485,,,,,,,,,,,,,,,,,0.455,false,328309.4000000004,328308.203,327724.725,327726.69999999925,327824.277,328541.728,,,
stimulus,canvas.Screen,0_8_5_1,2022-07-15T22:04:00.756Z,,,,,,6,683.4719999992521,response,,0.485,0.485,,,https://raw.githubusercontent.com/carero2/loss-perception/main/png/0.485blue1yellowb%3D1w%3D100v%3D1.png,https://raw.githubusercontent.com/carero2/loss-perception/main/png/0.455blue1yellowb%3D1w%3D100v%3D1.png,,,,,,,,,true,j,keypress(j),0.455,0.455,false,329226.9000000004,329225.19999999925,328308.203,328558.69999999925,328541.728,329341.353,,,
choice,canvas.Screen,0_8_5_2,2022-07-15T22:04:01.856Z,,,,0.455,,6,1083.603999999992,timeout,,,0.485,,0.485,,,9,8,,,,,,,,,,,0.455,false,330326.5999999996,330325.416,329258.383,329261.5,329341.353,330424.957,108,,
ITI,canvas.Screen,0_8_5_3,2022-07-15T22:04:02.439Z,,,2089,,,6,533.4500000000116,timeout,,,0.485,,,,,,,,,,,,,,,,,0.455,false,330910.0999999996,330908.958,330325.416,330327,330424.957,330958.407,,,
trial,flow.Sequence,0_8_5,2022-07-15T22:04:02.440Z,,,,,,6,3084.6809999999823,completion,,,0.485,,,,,,,,,,,,,,,,,0.455,false,330910.5999999996,330908.958,327724.725,327726.69999999925,327824.277,330958.407,,,
fixation,canvas.Screen,0_8_6_0,2022-07-15T22:04:02.973Z,,,,,,2,850.3240000000224,timeout,,,0.505,,,,,,,,,,,,,,,,,0.495,true,331443.5,331442.393,330908.958,330910.9000000004,330958.407,331808.731,,,
stimulus,canvas.Screen,0_8_6_1,2022-07-15T22:04:04.171Z,,,,,,2,830.8689999995986,response,,0.495,0.505,,,https://raw.githubusercontent.com/carero2/loss-perception/main/png/0.495blue1yellowb%3D1w%3D100v%3D8.png,https://raw.githubusercontent.com/carero2/loss-perception/main/png/0.505blue1yellowb%3D1w%3D100v%3D8.png,,,,,,,,,true,f,keypress(f),0.505,0.495,true,332641.69999999925,332639.5999999996,331442.393,331825.9000000004,331808.731,332792.248,,,
choice,canvas.Screen,0_8_6_2,2022-07-15T22:04:05.307Z,,,,0.495,,2,1033.5689999999595,timeout,,,0.505,,0.505,,,1,9,,,,,,,,,,,0.495,true,333777.69999999925,333776.308,332675.647,332678.30000000075,332792.248,333825.817,109,,
ITI,canvas.Screen,0_8_6_3,2022-07-15T22:04:05.840Z,,,2360,,,2,583.5810000000056,timeout,,,0.505,,,,,,,,,,,,,,,,,0.495,true,334311.0999999996,334309.896,333776.308,333778,333825.817,334409.398,,,
trial,flow.Sequence,0_8_6,2022-07-15T22:04:05.841Z,,,,,,2,3351.4890000000014,completion,,,0.505,,,,,,,,,,,,,,,,,0.495,true,334311.80000000075,334309.896,330908.958,330910.80000000075,330958.407,334409.398,,,
fixation,canvas.Screen,0_8_7_0,2022-07-15T22:04:06.423Z,,,,,,6,733.7019999999902,timeout,,,0.515,,,,,,,,,,,,,,,,,0.485,true,334894.4000000004,334893.362,334309.896,334312.0999999996,334409.398,335143.1,,,
stimulus,canvas.Screen,0_8_7_1,2022-07-15T22:04:07.536Z,,,,,,6,861.2000000007683,response,,0.485,0.515,,,https://raw.githubusercontent.com/carero2/loss-perception/main/png/0.485blue1yellowb%3D1w%3D100v%3D24.png,https://raw.githubusercontent.com/carero2/loss-perception/main/png/0.515blue1yellowb%3D1w%3D100v%3D24.png,,,,,,,,,true,f,keypress(f),0.515,0.485,true,336006.69999999925,336004.30000000075,334893.362,335160.0999999996,335143.1,336143.16,,,
choice,canvas.Screen,0_8_7_2,2022-07-15T22:04:08.657Z,,,,0.485,,6,1083.6500000000233,timeout,,,0.515,,0.515,,,3,12,,,,,,,,,,,0.485,true,337128.5,337127.302,336043.23,336043.80000000075,336143.16,337226.81,112,,
ITI,canvas.Screen,0_8_7_3,2022-07-15T22:04:09.241Z,,,2360,,,6,583.4579999999842,timeout,,,0.515,,,,,,,,,,,,,,,,,0.485,true,337712,337710.732,337127.302,337128.80000000075,337226.81,337810.268,,,
trial,flow.Sequence,0_8_7,2022-07-15T22:04:09.242Z,,,,,,6,3301.3340000000317,completion,,,0.515,,,,,,,,,,,,,,,,,0.485,true,337712.5999999996,337710.732,334309.896,334312,334409.398,337810.268,,,
fixation,canvas.Screen,0_8_8_0,2022-07-15T22:04:09.824Z,,,,,,4,883.9820000000182,timeout,,,0.51,,,,,,,,,,,,,,,,,0.49,true,338295.30000000075,338294.239,337710.732,337712.9000000004,337810.268,338694.25,,,
stimulus,canvas.Screen,0_8_8_1,2022-07-15T22:04:10.881Z,,,,,,4,655.6500000003725,response,,0.49,0.51,,,https://raw.githubusercontent.com/carero2/loss-perception/main/png/0.49blue1yellowb%3D1w%3D100v%3D89.png,https://raw.githubusercontent.com/carero2/loss-perception/main/png/0.51blue1yellowb%3D1w%3D100v%3D89.png,,,,,,,,,true,f,keypress(f),0.51,0.49,true,339351.69999999925,339349.9000000004,338294.239,338727.0999999996,338694.25,339477.414,,,
choice,canvas.Screen,0_8_8_2,2022-07-15T22:04:11.992Z,,,,0.49,,4,1083.5810000000056,timeout,,,0.51,,0.51,,,2,14,,,,,,,,,,,0.49,true,340462.69999999925,340461.467,339377.469,339386.69999999925,339477.414,340560.995,114,,
ITI,canvas.Screen,0_8_8_3,2022-07-15T22:04:12.574Z,,,2562,,,4,533.460000000021,timeout,,,0.51,,,,,,,,,,,,,,,,,0.49,true,341045.4000000004,341044.547,340461.467,340463,340560.995,341094.455,,,
trial,flow.Sequence,0_8_8,2022-07-15T22:04:12.575Z,,,,,,4,3234.2790000000386,completion,,,0.51,,,,,,,,,,,,,,,,,0.49,true,341046,341044.547,337710.732,337712.9000000004,337810.268,341094.455,,,
fixation,canvas.Screen,0_8_9_0,2022-07-15T22:04:13.109Z,,,,,,4,1000.8559999999707,timeout,,,0.51,,,,,,,,,,,,,,,,,0.49,true,341579.5999999996,341578.496,341044.547,341046.30000000075,341094.455,342095.311,,,
stimulus,canvas.Screen,0_8_9_1,2022-07-15T22:04:14.300Z,,,,,,4,673.689000000013,response,,0.49,0.51,,,https://raw.githubusercontent.com/carero2/loss-perception/main/png/0.49blue1yellowb%3D1w%3D100v%3D49.png,https://raw.githubusercontent.com/carero2/loss-perception/main/png/0.51blue1yellowb%3D1w%3D100v%3D49.png,,,,,,,,,true,f,keypress(f),0.51,0.49,true,342771.0999999996,342769,341578.496,342112.30000000075,342095.311,342895.034,,,
choice,canvas.Screen,0_8_9_2,2022-07-15T22:04:15.409Z,,,,0.49,,4,1033.5740000000224,timeout,,,0.51,,0.51,,,2,16,,,,,,,,,,,0.49,true,343880.0999999996,343879.041,342795.088,342806.9000000004,342895.034,343928.608,116,,
ITI,canvas.Screen,0_8_9_3,2022-07-15T22:04:15.943Z,,,2670,,,4,583.50900000002,timeout,,,0.51,,,,,,,,,,,,,,,,,0.49,true,344413.80000000075,344412.566,343879.041,343880.5999999996,343928.608,344512.117,,,
trial,flow.Sequence,0_8_9,2022-07-15T22:04:15.943Z,,,,,,4,3318.1109999999753,completion,,,0.51,,,,,,,,,,,,,,,,,0.49,true,344414.5,344412.566,341044.547,341046.19999999925,341094.455,344512.117,,,
fixation,canvas.Screen,0_8_10_0,2022-07-15T22:04:16.526Z,,,,,,4,734.0649999999441,timeout,,,0.49,,,,,,,,,,,,,,,,,0.47,false,344997.19999999925,344996.02,344412.566,344414.80000000075,344512.117,345246.182,,,
stimulus,canvas.Screen,0_8_10_1,2022-07-15T22:04:17.709Z,,,,,,4,931.7180000004009,response,,0.49,0.49,,,https://raw.githubusercontent.com/carero2/loss-perception/main/png/0.49blue1yellowb%3D1w%3D100v%3D83.png,https://raw.githubusercontent.com/carero2/loss-perception/main/png/0.47blue1yellowb%3D1w%3D100v%3D83.png,,,,,,,,,true,j,keypress(j),0.47,0.47,false,346179.80000000075,346177.9000000004,344996.02,345279,345246.182,346312.608,,,
choice,canvas.Screen,0_8_10_2,2022-07-15T22:04:18.827Z,,,,0.47,,4,1083.5939999999828,timeout,,,0.49,,0.49,,,6,22,,,,,,,,,,,0.47,false,347297.9000000004,347296.659,346212.638,346215.80000000075,346312.608,347396.202,122,,
ITI,canvas.Screen,0_8_10_3,2022-07-15T22:04:19.410Z,,,2390,,,4,583.5210000000079,timeout,,,0.49,,,,,,,,,,,,,,,,,0.47,false,347881.4000000004,347880.204,347296.659,347298.4000000004,347396.202,347979.723,,,
trial,flow.Sequence,0_8_10,2022-07-15T22:04:19.411Z,,,,,,4,3368.0869999999995,completion,,,0.49,,,,,,,,,,,,,,,,,0.47,false,347882.0999999996,347880.204,344412.566,344414.69999999925,344512.117,347979.723,,,
fixation,canvas.Screen,0_8_11_0,2022-07-15T22:04:19.994Z,,,,,,2,750.7889999999898,timeout,,,0.515,,,,,,,,,,,,,,,,,0.505,true,348464.80000000075,348463.7,347880.204,347882.4000000004,347979.723,348730.512,,,
stimulus,canvas.Screen,0_8_11_1,2022-07-15T22:04:21.478Z,,,,,,2,1216.7880000007572,response,,0.505,0.515,,,https://raw.githubusercontent.com/carero2/loss-perception/main/png/0.505blue1yellowb%3D1w%3D100v%3D52.png,https://raw.githubusercontent.com/carero2/loss-perception/main/png/0.515blue1yellowb%3D1w%3D100v%3D52.png,,,,,,,,,true,f,keypress(f),0.515,0.505,true,349949.19999999925,349947.30000000075,348463.7,348763.69999999925,348730.512,350013.561,,,
choice,canvas.Screen,0_8_11_2,2022-07-15T22:04:22.528Z,,,,0.505,,2,1083.6780000000144,timeout,,,0.515,,0.515,,,-1,21,,,,,,,,,,,0.505,true,350998.69999999925,350997.654,349963.642,349968.0999999996,350013.561,351097.239,121,,
ITI,canvas.Screen,0_8_11_3,2022-07-15T22:04:23.111Z,,,2469,,,2,583.4839999999967,timeout,,,0.515,,,,,,,,,,,,,,,,,0.505,true,351582.4000000004,351581.237,350997.654,350999.0999999996,351097.239,351680.723,,,
trial,flow.Sequence,0_8_11,2022-07-15T22:04:23.112Z,,,,,,2,3601.5140000000247,completion,,,0.515,,,,,,,,,,,,,,,,,0.505,true,351583.0999999996,351581.237,347880.204,347882.19999999925,347979.723,351680.723,,,
fixation,canvas.Screen,0_8_12_0,2022-07-15T22:04:23.695Z,,,,,,6,734.0030000000261,timeout,,,0.515,,,,,,,,,,,,,,,,,0.485,false,352165.69999999925,352164.634,351581.237,351583.4000000004,351680.723,352414.726,,,
stimulus,canvas.Screen,0_8_12_1,2022-07-15T22:04:25.110Z,,,,,,6,1164.7739999999758,response,,0.515,0.515,,,https://raw.githubusercontent.com/carero2/loss-perception/main/png/0.515blue1yellowb%3D1w%3D100v%3D62.png,https://raw.githubusercontent.com/carero2/loss-perception/main/png/0.485blue1yellowb%3D1w%3D100v%3D62.png,,,,,,,,,true,j,keypress(j),0.485,0.485,false,353581.4000000004,353579.5,352164.634,352447.5999999996,352414.726,353664.529,,,
choice,canvas.Screen,0_8_12_2,2022-07-15T22:04:26.179Z,,,,0.485,,6,1083.6920000000391,timeout,,,0.515,,0.515,,,3,24,,,,,,,,,,,0.485,false,354649.69999999925,354648.434,353614.638,353616.5,353664.529,354748.221,124,,
ITI,canvas.Screen,0_8_12_3,2022-07-15T22:04:26.762Z,,,2175,,,6,583.4629999999888,timeout,,,0.515,,,,,,,,,,,,,,,,,0.485,false,355233.4000000004,355232.212,354648.434,354650.19999999925,354748.221,355331.684,,,
trial,flow.Sequence,0_8_12,2022-07-15T22:04:26.763Z,,,,,,6,3551.4890000000014,completion,,,0.515,,,,,,,,,,,,,,,,,0.485,false,355234.0999999996,355232.212,351581.237,351583.30000000075,351680.723,355331.684,,,
fixation,canvas.Screen,0_8_13_0,2022-07-15T22:04:27.346Z,,,,,,2,734.0590000000084,timeout,,,0.495,,,,,,,,,,,,,,,,,0.485,false,355816.80000000075,355815.686,355232.212,355234.4000000004,355331.684,356065.743,,,
stimulus,canvas.Screen,0_8_13_1,2022-07-15T22:04:28.544Z,,,,,,2,947.2569999999832,response,,0.495,0.495,,,https://raw.githubusercontent.com/carero2/loss-perception/main/png/0.495blue1yellowb%3D1w%3D100v%3D72.png,https://raw.githubusercontent.com/carero2/loss-perception/main/png/0.485blue1yellowb%3D1w%3D100v%3D72.png,,,,,,,,,true,j,keypress(j),0.485,0.485,false,357015.30000000075,357013,355815.686,356082.9000000004,356065.743,357082.154,,,
choice,canvas.Screen,0_8_13_2,2022-07-15T22:04:29.596Z,,,,0.485,,2,1033.5740000000224,timeout,,,0.495,,0.495,,,3,27,,,,,,,,,,,0.485,false,358067.5,358066.262,357032.509,357034.5,357082.154,358115.728,127,,
ITI,canvas.Screen,0_8_13_3,2022-07-15T22:04:30.130Z,,,2333,,,2,583.5289999999804,timeout,,,0.495,,,,,,,,,,,,,,,,,0.485,false,358600.80000000075,358599.723,358066.262,358068,358115.728,358699.257,,,
trial,flow.Sequence,0_8_13,2022-07-15T22:04:30.130Z,,,,,,2,3268.0389999999898,completion,,,0.495,,,,,,,,,,,,,,,,,0.485,false,358601.4000000004,358599.723,355232.212,355234.4000000004,355331.684,358699.257,,,
fixation,canvas.Screen,0_8_14_0,2022-07-15T22:04:30.713Z,,,,,,6,883.6070000000182,timeout,,,0.545,,,,,,,,,,,,,,,,,0.515,false,359184.5,359183.268,358599.723,358601.69999999925,358699.257,359582.864,,,
stimulus,canvas.Screen,0_8_14_1,2022-07-15T22:04:32.024Z,,,,,,6,910.5360000003711,response,,0.545,0.545,,,https://raw.githubusercontent.com/carero2/loss-perception/main/png/0.545blue1yellowb%3D1w%3D100v%3D35.png,https://raw.githubusercontent.com/carero2/loss-perception/main/png/0.515blue1yellowb%3D1w%3D100v%3D35.png,,,,,,,,,true,j,keypress(j),0.515,0.515,false,360495.19999999925,360493.4000000004,359183.268,359615.30000000075,359582.864,360616.411,,,
choice,canvas.Screen,0_8_14_2,2022-07-15T22:04:33.141Z,,,,0.515,,6,1100.335999999952,timeout,,,0.545,,0.545,,,-3,24,,,,,,,,,,,0.515,false,361611.80000000075,361600.124,360516.526,360530.4000000004,360616.411,361716.747,124,,
ITI,canvas.Screen,0_8_14_3,2022-07-15T22:04:33.731Z,,,2634,,,6,583.5140000000247,timeout,,,0.545,,,,,,,,,,,,,,,,,0.515,false,362201.80000000075,362200.749,361600.124,361612.30000000075,361716.747,362300.261,,,
trial,flow.Sequence,0_8_14,2022-07-15T22:04:33.731Z,,,,,,6,3501.4920000000275,completion,,,0.545,,,,,,,,,,,,,,,,,0.515,false,362202.5,362200.749,358599.723,358601.5999999996,358699.257,362300.261,,,
fixation,canvas.Screen,0_8_15_0,2022-07-15T22:04:34.314Z,,,,,,4,733.9700000000303,timeout,,,0.53,,,,,,,,,,,,,,,,,0.51,false,362785.30000000075,362784.247,362200.749,362202.80000000075,362300.261,363034.231,,,
stimulus,canvas.Screen,0_8_15_1,2022-07-15T22:04:35.516Z,,,,,,4,951.1690000003437,response,,0.53,0.53,,,https://raw.githubusercontent.com/carero2/loss-perception/main/png/0.53blue1yellowb%3D1w%3D100v%3D76.png,https://raw.githubusercontent.com/carero2/loss-perception/main/png/0.51blue1yellowb%3D1w%3D100v%3D76.png,,,,,,,,,true,j,keypress(j),0.51,0.51,false,363987.30000000075,363985.4000000004,362784.247,363051.19999999925,363034.231,364100.747,,,
choice,canvas.Screen,0_8_15_2,2022-07-15T22:04:36.615Z,,,,0.51,,4,1033.5540000000037,timeout,,,0.53,,0.53,,,-2,22,,,,,,,,,,,0.51,false,365086,365084.855,364017.458,364022.19999999925,364100.747,365134.301,122,,
ITI,canvas.Screen,0_8_15_3,2022-07-15T22:04:37.149Z,,,2567,,,4,550.1670000000158,timeout,,,0.53,,,,,,,,,,,,,,,,,0.51,false,365619.5,365618.344,365084.855,365086.4000000004,365134.301,365684.468,,,
trial,flow.Sequence,0_8_15,2022-07-15T22:04:37.149Z,,,,,,4,3318.082999999984,completion,,,0.53,,,,,,,,,,,,,,,,,0.51,false,365620.19999999925,365618.344,362200.749,362202.69999999925,362300.261,365684.468,,,
fixation,canvas.Screen,0_8_16_0,2022-07-15T22:04:37.698Z,,,,,,2,884.0360000000219,timeout,,,0.505,,,,,,,,,,,,,,,,,0.495,false,366169.4000000004,366168.402,365618.344,365620.5,365684.468,366568.504,,,
stimulus,canvas.Screen,0_8_16_1,2022-07-15T22:04:38.951Z,,,,,,2,851.8960000003572,response,,0.505,0.505,,,https://raw.githubusercontent.com/carero2/loss-perception/main/png/0.505blue1yellowb%3D1w%3D100v%3D3.png,https://raw.githubusercontent.com/carero2/loss-perception/main/png/0.495blue1yellowb%3D1w%3D100v%3D3.png,,,,,,,,,true,f,keypress(f),0.495,0.495,false,367422.19999999925,367420.4000000004,366168.402,366585.4000000004,366568.504,367535,,,
choice,canvas.Screen,0_8_16_2,2022-07-15T22:04:40.049Z,,,,0.505,,2,1033.6199999999953,timeout,,,0.505,,0.495,,,-1,21,,,,,,,,,,,0.495,false,368520.19999999925,368519.08,367452.038,367457.69999999925,367535,368568.62,121,,
ITI,canvas.Screen,0_8_16_3,2022-07-15T22:04:40.582Z,,,2445,,,2,583.5019999999786,timeout,,,0.505,,,,,,,,,,,,,,,,,0.495,false,369053.5999999996,369052.487,368519.08,368520.5999999996,368568.62,369152.122,,,
trial,flow.Sequence,0_8_16,2022-07-15T22:04:40.583Z,,,,,,2,3368.0190000000293,completion,,,0.505,,,,,,,,,,,,,,,,,0.495,false,369054.19999999925,369052.487,365618.344,365620.4000000004,365684.468,369152.122,,,
fixation,canvas.Screen,0_8_17_0,2022-07-15T22:04:41.166Z,,,,,,6,883.5570000000298,timeout,,,0.485,,,,,,,,,,,,,,,,,0.455,false,369637.30000000075,369636.054,369052.487,369054.5,369152.122,370035.679,,,
stimulus,canvas.Screen,0_8_17_1,2022-07-15T22:04:42.307Z,,,,,,6,740.4209999996237,response,,0.485,0.485,,,https://raw.githubusercontent.com/carero2/loss-perception/main/png/0.485blue1yellowb%3D1w%3D100v%3D66.png,https://raw.githubusercontent.com/carero2/loss-perception/main/png/0.455blue1yellowb%3D1w%3D100v%3D66.png,,,,,,,,,true,j,keypress(j),0.455,0.455,false,370778.19999999925,370776.0999999996,369636.054,370068.9000000004,370035.679,370902.579,,,
choice,canvas.Screen,0_8_17_2,2022-07-15T22:04:43.417Z,,,,0.455,,6,1083.6379999999772,timeout,,,0.485,,0.485,,,9,30,,,,,,,,,,,0.455,false,371887.80000000075,371886.644,370802.655,370813.80000000075,370902.579,371986.217,130,,
ITI,canvas.Screen,0_8_17_3,2022-07-15T22:04:44.000Z,,,2045,,,6,583.4409999999916,timeout,,,0.485,,,,,,,,,,,,,,,,,0.455,false,372471.30000000075,372470.192,371886.644,371888.0999999996,371986.217,372569.658,,,
trial,flow.Sequence,0_8_17,2022-07-15T22:04:44.001Z,,,,,,6,3318.070000000007,completion,,,0.485,,,,,,,,,,,,,,,,,0.455,false,372472.0999999996,372470.192,369052.487,369054.30000000075,369152.122,372569.658,,,
fixation,canvas.Screen,0_8_18_0,2022-07-15T22:04:44.584Z,,,,,,6,750.6170000000275,timeout,,,0.515,,,,,,,,,,,,,,,,,0.485,true,373054.9000000004,373053.705,372470.192,372472.5,372569.658,373320.275,,,
stimulus,canvas.Screen,0_8_18_1,2022-07-15T22:04:46.094Z,,,,,,6,1242.9249999992317,response,,0.485,0.515,,,https://raw.githubusercontent.com/carero2/loss-perception/main/png/0.485blue1yellowb%3D1w%3D100v%3D10.png,https://raw.githubusercontent.com/carero2/loss-perception/main/png/0.515blue1yellowb%3D1w%3D100v%3D10.png,,,,,,,,,true,f,keypress(f),0.515,0.485,true,374565.19999999925,374563.19999999925,373053.705,373337.19999999925,373320.275,374686.925,,,
choice,canvas.Screen,0_8_18_2,2022-07-15T22:04:47.201Z,,,,0.485,,6,1083.613000000012,timeout,,,0.515,,0.515,,,3,33,,,,,,,,,,,0.485,true,375672.4000000004,375671.103,374587.018,374600.0999999996,374686.925,375770.538,133,,
ITI,canvas.Screen,0_8_18_3,2022-07-15T22:04:47.784Z,,,2820,,,6,583.5219999999972,timeout,,,0.515,,,,,,,,,,,,,,,,,0.485,true,376255.69999999925,376254.473,375671.103,375672.80000000075,375770.538,376354.06,,,
trial,flow.Sequence,0_8_18,2022-07-15T22:04:47.785Z,,,,,,6,3684.8150000000023,completion,,,0.515,,,,,,,,,,,,,,,,,0.485,true,376256.30000000075,376254.473,372470.192,372472.4000000004,372569.658,376354.06,,,
fixation,canvas.Screen,0_8_19_0,2022-07-15T22:04:48.368Z,,,,,,2,1150.7339999999967,timeout,,,0.505,,,,,,,,,,,,,,,,,0.495,false,376839,376837.986,376254.473,376256.69999999925,376354.06,377504.794,,,
stimulus,canvas.Screen,0_8_19_1,2022-07-15T22:04:49.968Z,,,,,,2,933.7060000000056,response,,0.505,0.505,,,https://raw.githubusercontent.com/carero2/loss-perception/main/png/0.505blue1yellowb%3D1w%3D100v%3D63.png,https://raw.githubusercontent.com/carero2/loss-perception/main/png/0.495blue1yellowb%3D1w%3D100v%3D63.png,,,,,,,,,true,j,keypress(j),0.495,0.495,false,378439.69999999925,378438.5,376837.986,377537.69999999925,377504.794,378554.617,,,
choice,canvas.Screen,0_8_19_2,2022-07-15T22:04:51.069Z,,,,0.495,,2,1050.2919999999576,timeout,,,0.505,,0.505,,,1,34,,,,,,,,,,,0.495,false,379539.80000000075,379538.769,378471.669,378471.4000000004,378554.617,379604.909,134,,
ITI,canvas.Screen,0_8_19_3,2022-07-15T22:04:51.619Z,,,2202,,,2,600.1959999999963,timeout,,,0.505,,,,,,,,,,,,,,,,,0.495,false,380090.0999999996,380088.89,379538.769,379540.30000000075,379604.909,380205.105,,,
trial,flow.Sequence,0_8_19,2022-07-15T22:04:51.620Z,,,,,,2,3734.8300000000163,completion,,,0.505,,,,,,,,,,,,,,,,,0.495,false,380090.80000000075,380088.89,376254.473,376256.5999999996,376354.06,380205.105,,,
fixation,canvas.Screen,0_8_20_0,2022-07-15T22:04:52.219Z,,,,,,6,850.7700000000186,timeout,,,0.545,,,,,,,,,,,,,,,,,0.515,false,380690.30000000075,380689.081,380088.89,380091.0999999996,380205.105,381055.875,,,
stimulus,canvas.Screen,0_8_20_1,2022-07-15T22:04:53.481Z,,,,,,6,893.8249999992549,response,,0.545,0.545,,,https://raw.githubusercontent.com/carero2/loss-perception/main/png/0.545blue1yellowb%3D1w%3D100v%3D27.png,https://raw.githubusercontent.com/carero2/loss-perception/main/png/0.515blue1yellowb%3D1w%3D100v%3D27.png,,,,,,,,,true,j,keypress(j),0.515,0.515,false,381952,381949.69999999925,380689.081,381072.80000000075,381055.875,382088.849,,,
choice,canvas.Screen,0_8_20_2,2022-07-15T22:04:54.603Z,,,,0.515,,6,1050.3379999999888,timeout,,,0.545,,0.545,,,-3,31,,,,,,,,,,,0.515,false,383074.30000000075,383073.028,381972.602,381988.30000000075,382088.849,383139.187,131,,
ITI,canvas.Screen,0_8_20_3,2022-07-15T22:04:55.152Z,,,2248,,,6,550.1070000000182,timeout,,,0.545,,,,,,,,,,,,,,,,,0.515,false,383623.5,383622.639,383073.028,383074.80000000075,383139.187,383689.294,,,
trial,flow.Sequence,0_8_20,2022-07-15T22:04:55.153Z,,,,,,6,3417.5340000000433,completion,,,0.545,,,,,,,,,,,,,,,,,0.515,false,383624.0999999996,383622.639,380088.89,380091,380205.105,383689.294,,,
fixation,canvas.Screen,0_8_21_0,2022-07-15T22:04:55.703Z,,,,,,4,800.7519999999786,timeout,,,0.51,,,,,,,,,,,,,,,,,0.49,false,384174.5,384173.321,383622.639,383624.30000000075,383689.294,384490.046,,,
stimulus,canvas.Screen,0_8_21_1,2022-07-15T22:04:56.914Z,,,,,,4,892.5539999996545,response,,0.51,0.51,,,https://raw.githubusercontent.com/carero2/loss-perception/main/png/0.51blue1yellowb%3D1w%3D100v%3D11.png,https://raw.githubusercontent.com/carero2/loss-perception/main/png/0.49blue1yellowb%3D1w%3D100v%3D11.png,,,,,,,,,true,j,keypress(j),0.49,0.49,false,385384.9000000004,385382.5999999996,384173.321,384507.19999999925,384490.046,385506.526,,,
choice,canvas.Screen,0_8_21_2,2022-07-15T22:04:58.021Z,,,,0.49,,4,1083.6350000000093,timeout,,,0.51,,0.51,,,2,33,,,,,,,,,,,0.49,false,386491.9000000004,386490.588,385406.567,385420.80000000075,385506.526,386590.161,133,,
ITI,canvas.Screen,0_8_21_3,2022-07-15T22:04:58.604Z,,,2393,,,4,583.4899999999907,timeout,,,0.51,,,,,,,,,,,,,,,,,0.49,false,387075.0999999996,387074.083,386490.588,386492.30000000075,386590.161,387173.651,,,
trial,flow.Sequence,0_8_21,2022-07-15T22:04:58.604Z,,,,,,4,3384.7889999999898,completion,,,0.51,,,,,,,,,,,,,,,,,0.49,false,387075.5999999996,387074.083,383622.639,383624.30000000075,383689.294,387173.651,,,
fixation,canvas.Screen,0_8_22_0,2022-07-15T22:04:59.187Z,,,,,,2,784.0009999999893,timeout,,,0.495,,,,,,,,,,,,,,,,,0.485,true,387658.4000000004,387657.285,387074.083,387075.80000000075,387173.651,387957.652,,,
stimulus,canvas.Screen,0_8_22_1,2022-07-15T22:05:00.661Z,,,,,,2,1172.6480000007432,response,,0.485,0.495,,,https://raw.githubusercontent.com/carero2/loss-perception/main/png/0.485blue1yellowb%3D1w%3D100v%3D52.png,https://raw.githubusercontent.com/carero2/loss-perception/main/png/0.495blue1yellowb%3D1w%3D100v%3D52.png,,,,,,,,,true,f,keypress(f),0.495,0.485,true,389132.30000000075,389130.30000000075,387657.285,387990.5,387957.652,389240.82,,,
choice,canvas.Screen,0_8_22_2,2022-07-15T22:05:01.755Z,,,,0.485,,2,1083.6819999999716,timeout,,,0.495,,0.495,,,3,36,,,,,,,,,,,0.485,true,390226.0999999996,390224.964,389157.618,389167.80000000075,389240.82,390324.502,136,,
ITI,canvas.Screen,0_8_22_3,2022-07-15T22:05:02.338Z,,,2690,,,2,583.4890000000014,timeout,,,0.495,,,,,,,,,,,,,,,,,0.485,true,390809.5999999996,390808.421,390224.964,390226.5,390324.502,390907.991,,,
trial,flow.Sequence,0_8_22,2022-07-15T22:05:02.339Z,,,,,,2,3634.7699999999604,completion,,,0.495,,,,,,,,,,,,,,,,,0.485,true,390810.30000000075,390808.421,387074.083,387075.80000000075,387173.651,390907.991,,,
fixation,canvas.Screen,0_8_23_0,2022-07-15T22:05:02.922Z,,,,,,4,733.969000000041,timeout,,,0.53,,,,,,,,,,,,,,,,,0.51,true,391393,391391.963,390808.421,390810.5999999996,390907.991,391641.96,,,
stimulus,canvas.Screen,0_8_23_1,2022-07-15T22:05:04.041Z,,,,,,4,868.4400000003516,response,,0.51,0.53,,,https://raw.githubusercontent.com/carero2/loss-perception/main/png/0.51blue1yellowb%3D1w%3D100v%3D13.png,https://raw.githubusercontent.com/carero2/loss-perception/main/png/0.53blue1yellowb%3D1w%3D100v%3D13.png,,,,,,,,,true,f,keypress(f),0.53,0.51,true,392512.30000000075,392510.4000000004,391391.963,391675.5999999996,391641.96,392625.078,,,
choice,canvas.Screen,0_8_23_2,2022-07-15T22:05:05.139Z,,,,0.51,,4,1083.6720000000205,timeout,,,0.53,,0.53,,,-2,34,,,,,,,,,,,0.51,true,393610.30000000075,393609.138,392541.865,392547.0999999996,392625.078,393708.75,134,,
ITI,canvas.Screen,0_8_23_3,2022-07-15T22:05:05.723Z,,,2199,,,4,583.4990000000107,timeout,,,0.53,,,,,,,,,,,,,,,,,0.51,true,394193.9000000004,394192.722,393609.138,393610.5999999996,393708.75,394292.249,,,
trial,flow.Sequence,0_8_23,2022-07-15T22:05:05.723Z,,,,,,4,3284.731000000029,completion,,,0.53,,,,,,,,,,,,,,,,,0.51,true,394194.5999999996,394192.722,390808.421,390810.5,390907.991,394292.249,,,
fixation,canvas.Screen,0_8_24_0,2022-07-15T22:05:06.306Z,,,,,,2,616.8229999999749,timeout,,,0.515,,,,,,,,,,,,,,,,,0.505,false,394777.30000000075,394776.143,394192.722,394194.9000000004,394292.249,394909.072,,,
stimulus,canvas.Screen,0_8_24_1,2022-07-15T22:05:07.488Z,,,,,,2,1048.527999999642,response,,0.515,0.515,,,https://raw.githubusercontent.com/carero2/loss-perception/main/png/0.515blue1yellowb%3D1w%3D100v%3D86.png,https://raw.githubusercontent.com/carero2/loss-perception/main/png/0.505blue1yellowb%3D1w%3D100v%3D86.png,,,,,,,,,true,j,keypress(j),0.505,0.505,false,395959,395957.5999999996,394776.143,394814.5,394909.072,396026.019,,,
choice,canvas.Screen,0_8_24_2,2022-07-15T22:05:08.540Z,,,,0.505,,2,1083.655000000028,timeout,,,0.515,,0.515,,,-1,33,,,,,,,,,,,0.505,false,397011.4000000004,397010.156,395976.129,395980.9000000004,396026.019,397109.674,133,,
ITI,canvas.Screen,0_8_24_3,2022-07-15T22:05:09.123Z,,,2789,,,2,583.4490000000224,timeout,,,0.515,,,,,,,,,,,,,,,,,0.505,false,397594.5999999996,397593.573,397010.156,397011.9000000004,397109.674,397693.123,,,
trial,flow.Sequence,0_8_24,2022-07-15T22:05:09.124Z,,,,,,2,3301.323999999964,completion,,,0.515,,,,,,,,,,,,,,,,,0.505,false,397595.19999999925,397593.573,394192.722,394194.80000000075,394292.249,397693.123,,,
fixation,canvas.Screen,0_8_25_0,2022-07-15T22:05:09.707Z,,,,,,6,900.2729999999865,timeout,,,0.485,,,,,,,,,,,,,,,,,0.455,true,398178.19999999925,398177.093,397593.573,397595.5,397693.123,398593.396,,,
stimulus,canvas.Screen,0_8_25_1,2022-07-15T22:05:10.870Z,,,,,,6,745.7039999996196,response,,0.455,0.485,,,https://raw.githubusercontent.com/carero2/loss-perception/main/png/0.455blue1yellowb%3D1w%3D100v%3D88.png,https://raw.githubusercontent.com/carero2/loss-perception/main/png/0.485blue1yellowb%3D1w%3D100v%3D88.png,,,,,,,,,true,f,keypress(f),0.485,0.455,true,399340.9000000004,399339.0999999996,398177.093,398610.30000000075,398593.396,399443.637,,,
choice,canvas.Screen,0_8_25_2,2022-07-15T22:05:11.967Z,,,,0.455,,6,1083.609999999986,timeout,,,0.485,,0.485,,,9,42,,,,,,,,,,,0.455,true,400438,400427.259,399393.582,399376.4000000004,399443.637,400527.247,142,,
ITI,canvas.Screen,0_8_25_3,2022-07-15T22:05:12.541Z,,,2245,,,6,583.5160000000033,timeout,,,0.485,,,,,,,,,,,,,,,,,0.455,true,401012.4000000004,401011.244,400427.259,400438.30000000075,400527.247,401110.763,,,
trial,flow.Sequence,0_8_25,2022-07-15T22:05:12.542Z,,,,,,6,3318.1209999999846,completion,,,0.485,,,,,,,,,,,,,,,,,0.455,true,401013.19999999925,401011.244,397593.573,397595.5,397693.123,401110.763,,,
fixation,canvas.Screen,0_8_26_0,2022-07-15T22:05:13.125Z,,,,,,4,717.1959999999963,timeout,,,0.49,,,,,,,,,,,,,,,,,0.47,false,401595.69999999925,401594.692,401011.244,401013.5,401110.763,401827.959,,,
stimulus,canvas.Screen,0_8_26_1,2022-07-15T22:05:14.348Z,,,,,,4,989.7409999992815,response,,0.49,0.49,,,https://raw.githubusercontent.com/carero2/loss-perception/main/png/0.49blue1yellowb%3D1w%3D100v%3D29.png,https://raw.githubusercontent.com/carero2/loss-perception/main/png/0.47blue1yellowb%3D1w%3D100v%3D29.png,,,,,,,,,true,j,keypress(j),0.47,0.47,false,402819.5999999996,402817.69999999925,401594.692,401860.80000000075,401827.959,402944.565,,,
choice,canvas.Screen,0_8_26_2,2022-07-15T22:05:15.458Z,,,,0.47,,4,1083.63400000002,timeout,,,0.49,,0.49,,,6,48,,,,,,,,,,,0.47,false,403929.0999999996,403928.185,402844.658,402855.30000000075,402944.565,404028.199,148,,
ITI,canvas.Screen,0_8_26_3,2022-07-15T22:05:16.042Z,,,2967,,,4,583.5,timeout,,,0.49,,,,,,,,,,,,,,,,,0.47,false,404513.4000000004,404512.185,403928.185,403929.4000000004,404028.199,404611.699,,,
trial,flow.Sequence,0_8_26,2022-07-15T22:05:16.043Z,,,,,,4,3401.4220000000205,completion,,,0.49,,,,,,,,,,,,,,,,,0.47,false,404514.0999999996,404512.185,401011.244,401013.4000000004,401110.763,404611.699,,,
fixation,canvas.Screen,0_8_27_0,2022-07-15T22:05:16.630Z,,,,,,6,733.5589999999502,timeout,,,0.485,,,,,,,,,,,,,,,,,0.455,true,405101.5,405095.114,404512.185,404514.4000000004,404611.699,405345.258,,,
stimulus,canvas.Screen,0_8_27_1,2022-07-15T22:05:17.562Z,,,,,,6,686.341999999655,response,,0.455,0.485,,,https://raw.githubusercontent.com/carero2/loss-perception/main/png/0.455blue1yellowb%3D1w%3D100v%3D24.png,https://raw.githubusercontent.com/carero2/loss-perception/main/png/0.485blue1yellowb%3D1w%3D100v%3D24.png,,,,,,,,,true,f,keypress(f),0.485,0.455,true,406033.5999999996,406031.5999999996,405095.114,405365.69999999925,405345.258,406162.035,,,
choice,canvas.Screen,0_8_27_2,2022-07-15T22:05:18.676Z,,,,0.455,,6,1083.7060000000056,timeout,,,0.485,,0.485,,,9,57,,,,,,,,,,,0.455,true,407147.30000000075,407146.171,406062.172,406068.5,406162.035,407245.741,157,,
ITI,canvas.Screen,0_8_27_3,2022-07-15T22:05:19.260Z,,,2337,,,6,583.494000000006,timeout,,,0.485,,,,,,,,,,,,,,,,,0.455,true,407730.80000000075,407729.677,407146.171,407147.69999999925,407245.741,407829.235,,,
trial,flow.Sequence,0_8_27,2022-07-15T22:05:19.260Z,,,,,,6,3117.978000000003,completion,,,0.485,,,,,,,,,,,,,,,,,0.455,true,407731.5,407729.677,404512.185,404514.30000000075,404611.699,407829.235,,,
fixation,canvas.Screen,0_8_28_0,2022-07-15T22:05:19.843Z,,,,,,2,784.0900000000256,timeout,,,0.495,,,,,,,,,,,,,,,,,0.485,true,408314.19999999925,408313.206,407729.677,407731.80000000075,407829.235,408613.325,,,
stimulus,canvas.Screen,0_8_28_1,2022-07-15T22:05:21.011Z,,,,,,2,867.5750000003609,response,,0.485,0.495,,,https://raw.githubusercontent.com/carero2/loss-perception/main/png/0.485blue1yellowb%3D1w%3D100v%3D17.png,https://raw.githubusercontent.com/carero2/loss-perception/main/png/0.495blue1yellowb%3D1w%3D100v%3D17.png,,,,,,,,,true,f,keypress(f),0.495,0.485,true,409482.69999999925,409480.9000000004,408313.206,408630.0999999996,408613.325,409596.332,,,
choice,canvas.Screen,0_8_28_2,2022-07-15T22:05:22.110Z,,,,0.485,,2,1083.6720000000205,timeout,,,0.495,,0.495,,,3,60,,,,,,,,,,,0.485,true,410581.5,410580.433,409513.128,409517.5,409596.332,410680.004,160,,
ITI,canvas.Screen,0_8_28_3,2022-07-15T22:05:22.694Z,,,2409,,,2,583.4549999999581,timeout,,,0.495,,,,,,,,,,,,,,,,,0.485,true,411165.19999999925,411163.987,410580.433,410581.9000000004,410680.004,411263.459,,,
trial,flow.Sequence,0_8_28,2022-07-15T22:05:22.695Z,,,,,,2,3334.752000000037,completion,,,0.495,,,,,,,,,,,,,,,,,0.485,true,411165.80000000075,411163.987,407729.677,407731.69999999925,407829.235,411263.459,,,
fixation,canvas.Screen,0_8_29_0,2022-07-15T22:05:23.277Z,,,,,,2,1000.3630000000121,timeout,,,0.505,,,,,,,,,,,,,,,,,0.495,true,411748.5,411747.473,411163.987,411166.19999999925,411263.459,412263.822,,,
stimulus,canvas.Screen,0_8_29_1,2022-07-15T22:05:24.515Z,,,,,,2,720.7779999996419,response,,0.495,0.505,,,https://raw.githubusercontent.com/carero2/loss-perception/main/png/0.495blue1yellowb%3D1w%3D100v%3D90.png,https://raw.githubusercontent.com/carero2/loss-perception/main/png/0.505blue1yellowb%3D1w%3D100v%3D90.png,,,,,,,,,true,f,keypress(f),0.505,0.495,true,412986.5,412984.5999999996,411747.473,412280.5999999996,412263.822,413114.011,,,
choice,canvas.Screen,0_8_29_2,2022-07-15T22:05:25.628Z,,,,0.495,,2,1083.579000000027,timeout,,,0.505,,0.505,,,1,61,,,,,,,,,,,0.495,true,414099.30000000075,414098.117,413014.029,413023.19999999925,413114.011,414197.59,161,,
ITI,canvas.Screen,0_8_29_3,2022-07-15T22:05:26.212Z,,,2777,,,2,583.5199999999604,timeout,,,0.505,,,,,,,,,,,,,,,,,0.495,true,414683.5,414681.18,414098.117,414099.5999999996,414197.59,414781.11,,,
trial,flow.Sequence,0_8_29,2022-07-15T22:05:26.213Z,,,,,,2,3417.7210000000196,completion,,,0.505,,,,,,,,,,,,,,,,,0.495,true,414684.19999999925,414681.18,411163.987,411166.0999999996,411263.459,414781.11,,,
fixation,canvas.Screen,0_8_30_0,2022-07-15T22:05:26.795Z,,,,,,2,942.6710000000312,timeout,,,0.515,,,,,,,,,,,,,,,,,0.505,true,415266.0999999996,415265.011,414681.18,414684.5,414781.11,415723.781,,,
stimulus,canvas.Screen,0_8_30_1,2022-07-15T22:05:28.075Z,,,,,,2,820.0190000007278,response,,0.505,0.515,,,https://raw.githubusercontent.com/carero2/loss-perception/main/png/0.505blue1yellowb%3D1w%3D100v%3D78.png,https://raw.githubusercontent.com/carero2/loss-perception/main/png/0.515blue1yellowb%3D1w%3D100v%3D78.png,,,,,,,,,true,f,keypress(f),0.515,0.505,true,416545.9000000004,416543.80000000075,415265.011,415756.30000000075,415723.781,416664.965,,,
choice,canvas.Screen,0_8_30_2,2022-07-15T22:05:29.179Z,,,,0.505,,2,1033.5499999999884,timeout,,,0.515,,0.515,,,-1,60,,,,,,,,,,,0.505,true,417650.0999999996,417648.949,416598.237,416581.4000000004,416664.965,417698.515,160,,
ITI,canvas.Screen,0_8_30_3,2022-07-15T22:05:29.712Z,,,2742,,,2,583.5430000000051,timeout,,,0.515,,,,,,,,,,,,,,,,,0.505,true,418183.5,418182.53,417648.949,417650.69999999925,417698.515,418282.058,,,
trial,flow.Sequence,0_8_30,2022-07-15T22:05:29.713Z,,,,,,2,3401.420000000042,completion,,,0.515,,,,,,,,,,,,,,,,,0.505,true,418184.0999999996,418182.53,414681.18,414684.4000000004,414781.11,418282.058,,,
fixation,canvas.Screen,0_8_31_0,2022-07-15T22:05:30.296Z,,,,,,6,916.9230000000098,timeout,,,0.515,,,,,,,,,,,,,,,,,0.485,false,418766.9000000004,418765.877,418182.53,418184.4000000004,418282.058,419198.981,,,
stimulus,canvas.Screen,0_8_31_1,2022-07-15T22:05:31.627Z,,,,,,6,897.7189999992261,response,,0.515,0.515,,,https://raw.githubusercontent.com/carero2/loss-perception/main/png/0.515blue1yellowb%3D1w%3D100v%3D51.png,https://raw.githubusercontent.com/carero2/loss-perception/main/png/0.485blue1yellowb%3D1w%3D100v%3D51.png,,,,,,,,,true,f,keypress(f),0.485,0.485,false,420098.69999999925,420096.69999999925,418765.877,419217,419198.981,420215.901,,,
choice,canvas.Screen,0_8_31_2,2022-07-15T22:05:32.730Z,,,,0.515,,6,1033.5979999999981,timeout,,,0.515,,0.485,,,-3,57,,,,,,,,,,,0.485,false,421201.0999999996,421200.024,420132.639,420133.5999999996,420215.901,421249.499,157,,
ITI,canvas.Screen,0_8_31_3,2022-07-15T22:05:33.273Z,,,2568,,,6,600.1469999999972,timeout,,,0.515,,,,,,,,,,,,,,,,,0.485,false,421744.4000000004,421733.068,421200.024,421201.5,421249.499,421849.646,,,
trial,flow.Sequence,0_8_31,2022-07-15T22:05:33.274Z,,,,,,6,3451.0100000000093,completion,,,0.515,,,,,,,,,,,,,,,,,0.485,false,421745.0999999996,421733.068,418182.53,418184.30000000075,418282.058,421849.646,,,
fixation,canvas.Screen,0_8_32_0,2022-07-15T22:05:33.864Z,,,,,,4,967.5829999999842,timeout,,,0.51,,,,,,,,,,,,,,,,,0.49,true,422334.69999999925,422333.645,421733.068,421745.4000000004,421849.646,422817.229,,,
stimulus,canvas.Screen,0_8_32_1,2022-07-15T22:05:35.550Z,,,,,,4,1202.271000000008,response,,0.49,0.51,,,https://raw.githubusercontent.com/carero2/loss-perception/main/png/0.49blue1yellowb%3D1w%3D100v%3D16.png,https://raw.githubusercontent.com/carero2/loss-perception/main/png/0.51blue1yellowb%3D1w%3D100v%3D16.png,,,,,,,,,true,f,keypress(f),0.51,0.49,true,424021.4000000004,424019.5,422333.645,422834,422817.229,424100.259,,,
choice,canvas.Screen,0_8_32_2,2022-07-15T22:05:36.614Z,,,,0.49,,4,1033.6179999999586,timeout,,,0.51,,0.51,,,2,59,,,,,,,,,,,0.49,true,425085.5999999996,425084.347,424050.386,424057.0999999996,424100.259,425133.877,159,,
ITI,canvas.Screen,0_8_32_3,2022-07-15T22:05:37.148Z,,,2754,,,4,583.5290000000386,timeout,,,0.51,,,,,,,,,,,,,,,,,0.49,true,425618.9000000004,425617.899,425084.347,425086,425133.877,425717.406,,,
trial,flow.Sequence,0_8_32,2022-07-15T22:05:37.148Z,,,,,,4,3768.252999999968,completion,,,0.51,,,,,,,,,,,,,,,,,0.49,true,425619.5999999996,425617.899,421733.068,421745.30000000075,421849.646,425717.406,,,
fixation,canvas.Screen,0_8_33_0,2022-07-15T22:05:37.731Z,,,,,,4,767.4510000000009,timeout,,,0.49,,,,,,,,,,,,,,,,,0.47,true,426202.5,426201.346,425617.899,425619.80000000075,425717.406,426484.857,,,
stimulus,canvas.Screen,0_8_33_1,2022-07-15T22:05:39.207Z,,,,,,4,1191.943000000727,response,,0.47,0.49,,,https://raw.githubusercontent.com/carero2/loss-perception/main/png/0.47blue1yellowb%3D1w%3D100v%3D80.png,https://raw.githubusercontent.com/carero2/loss-perception/main/png/0.49blue1yellowb%3D1w%3D100v%3D80.png,,,,,,,,,true,f,keypress(f),0.49,0.47,true,427678.80000000075,427676.80000000075,426201.346,426501.9000000004,426484.857,427734.587,,,
choice,canvas.Screen,0_8_33_2,2022-07-15T22:05:40.249Z,,,,0.47,,4,1083.6560000000172,timeout,,,0.49,,0.49,,,6,65,,,,,,,,,,,0.47,true,428720,428718.728,427684.706,427696.69999999925,427734.587,428818.243,165,,
ITI,canvas.Screen,0_8_33_3,2022-07-15T22:05:40.832Z,,,2664,,,4,583.4990000000107,timeout,,,0.49,,,,,,,,,,,,,,,,,0.47,true,429303.30000000075,429302.159,428718.728,428720.4000000004,428818.243,429401.742,,,
trial,flow.Sequence,0_8_33,2022-07-15T22:05:40.833Z,,,,,,4,3584.752999999968,completion,,,0.49,,,,,,,,,,,,,,,,,0.47,true,429303.9000000004,429302.159,425617.899,425619.80000000075,425717.406,429401.742,,,
fixation,canvas.Screen,0_8_34_0,2022-07-15T22:05:41.422Z,,,,,,4,733.5319999999483,timeout,,,0.53,,,,,,,,,,,,,,,,,0.51,true,429893.5,429885.222,429302.159,429304.19999999925,429401.742,430135.274,,,
stimulus,canvas.Screen,0_8_34_1,2022-07-15T22:05:42.866Z,,,,,,4,1199.8259999996517,response,,0.51,0.53,,,https://raw.githubusercontent.com/carero2/loss-perception/main/png/0.51blue1yellowb%3D1w%3D100v%3D47.png,https://raw.githubusercontent.com/carero2/loss-perception/main/png/0.53blue1yellowb%3D1w%3D100v%3D47.png,,,,,,,,,true,f,keypress(f),0.53,0.51,true,431337.0999999996,431335.0999999996,429885.222,430153.30000000075,430135.274,431418.904,,,
choice,canvas.Screen,0_8_34_2,2022-07-15T22:05:43.933Z,,,,0.51,,4,1083.6630000000005,timeout,,,0.53,,0.53,,,-2,63,,,,,,,,,,,0.51,true,432404.19999999925,432403.052,431369.016,431373.30000000075,431418.904,432502.567,163,,
ITI,canvas.Screen,0_8_34_3,2022-07-15T22:05:44.516Z,,,2345,,,4,583.4679999999935,timeout,,,0.53,,,,,,,,,,,,,,,,,0.51,true,432987.69999999925,432986.548,432403.052,432404.5,432502.567,433086.035,,,
trial,flow.Sequence,0_8_34,2022-07-15T22:05:44.517Z,,,,,,4,3584.8059999999823,completion,,,0.53,,,,,,,,,,,,,,,,,0.51,true,432988.4000000004,432986.548,429302.159,429304,429401.742,433086.035,,,
fixation,canvas.Screen,0_8_35_0,2022-07-15T22:05:45.100Z,,,,,,6,784.0570000000298,timeout,,,0.545,,,,,,,,,,,,,,,,,0.515,true,433571.0999999996,433570.03,432986.548,432988.80000000075,433086.035,433870.092,,,
stimulus,canvas.Screen,0_8_35_1,2022-07-15T22:05:46.385Z,,,,,,6,983.9079999999958,response,,0.515,0.545,,,https://raw.githubusercontent.com/carero2/loss-perception/main/png/0.515blue1yellowb%3D1w%3D100v%3D57.png,https://raw.githubusercontent.com/carero2/loss-perception/main/png/0.545blue1yellowb%3D1w%3D100v%3D57.png,,,,,,,,,true,f,keypress(f),0.545,0.515,true,434855.9000000004,434854,433570.03,433887,433870.092,434986.545,,,
choice,canvas.Screen,0_8_35_2,2022-07-15T22:05:47.501Z,,,,0.515,,6,1033.625,timeout,,,0.545,,0.545,,,-3,60,,,,,,,,,,,0.515,true,435971.9000000004,435970.684,434886.618,434892.19999999925,434986.545,436020.17,160,,
ITI,canvas.Screen,0_8_35_3,2022-07-15T22:05:48.034Z,,,2320,,,6,583.5020000000368,timeout,,,0.545,,,,,,,,,,,,,,,,,0.515,true,436505.19999999925,436504.165,435970.684,435972.4000000004,436020.17,436603.672,,,
trial,flow.Sequence,0_8_35,2022-07-15T22:05:48.035Z,,,,,,6,3418.1300000000047,completion,,,0.545,,,,,,,,,,,,,,,,,0.515,true,436505.9000000004,436504.165,432986.548,432988.5999999996,433086.035,436603.672,,,
fixation,canvas.Screen,0_8_36_0,2022-07-15T22:05:48.618Z,,,,,,2,934.1520000000019,timeout,,,0.505,,,,,,,,,,,,,,,,,0.495,true,437088.9000000004,437087.688,436504.165,436506.19999999925,436603.672,437537.824,,,
stimulus,canvas.Screen,0_8_36_1,2022-07-15T22:05:50.027Z,,,,,,2,958.8759999992326,response,,0.495,0.505,,,https://raw.githubusercontent.com/carero2/loss-perception/main/png/0.495blue1yellowb%3D1w%3D100v%3D35.png,https://raw.githubusercontent.com/carero2/loss-perception/main/png/0.505blue1yellowb%3D1w%3D100v%3D35.png,,,,,,,,,true,f,keypress(f),0.505,0.495,true,438498.9000000004,438496.69999999925,437087.688,437554.69999999925,437537.824,438570.811,,,
choice,canvas.Screen,0_8_36_2,2022-07-15T22:05:51.085Z,,,,0.495,,2,1083.6749999999884,timeout,,,0.505,,0.505,,,1,61,,,,,,,,,,,0.495,true,439556.19999999925,439554.985,438520.96,438534.19999999925,438570.811,439654.486,161,,
ITI,canvas.Screen,0_8_36_3,2022-07-15T22:05:51.668Z,,,2319,,,2,583.5030000000261,timeout,,,0.505,,,,,,,,,,,,,,,,,0.495,true,440139,440137.971,439554.985,439556.5,439654.486,440237.989,,,
trial,flow.Sequence,0_8_36,2022-07-15T22:05:51.668Z,,,,,,2,3534.298999999999,completion,,,0.505,,,,,,,,,,,,,,,,,0.495,true,440139.5,440137.971,436504.165,436506.0999999996,436603.672,440237.989,,,
fixation,canvas.Screen,0_8_37_0,2022-07-15T22:05:52.252Z,,,,,,4,717.4710000000196,timeout,,,0.51,,,,,,,,,,,,,,,,,0.49,true,440723.0999999996,440721.871,440137.971,440139.80000000075,440237.989,440955.46,,,
stimulus,canvas.Screen,0_8_37_1,2022-07-15T22:05:53.410Z,,,,,,4,924.239999999234,response,,0.49,0.51,,,https://raw.githubusercontent.com/carero2/loss-perception/main/png/0.49blue1yellowb%3D1w%3D100v%3D75.png,https://raw.githubusercontent.com/carero2/loss-perception/main/png/0.51blue1yellowb%3D1w%3D100v%3D75.png,,,,,,,,,true,f,keypress(f),0.51,0.49,true,441881.5,441879.69999999925,440721.871,440972.30000000075,440955.46,442005.081,,,
choice,canvas.Screen,0_8_37_2,2022-07-15T22:05:54.519Z,,,,0.49,,4,1083.679999999993,timeout,,,0.51,,0.51,,,2,63,,,,,,,,,,,0.49,true,442990.30000000075,442989.247,441905.173,441916.0999999996,442005.081,443088.761,163,,
ITI,canvas.Screen,0_8_37_3,2022-07-15T22:05:55.103Z,,,2123,,,4,583.4720000000088,timeout,,,0.51,,,,,,,,,,,,,,,,,0.49,true,443573.9000000004,443572.741,442989.247,442990.80000000075,443088.761,443672.233,,,
trial,flow.Sequence,0_8_37,2022-07-15T22:05:55.103Z,,,,,,4,3334.7519999999786,completion,,,0.51,,,,,,,,,,,,,,,,,0.49,true,443574.5,443572.741,440137.971,440139.69999999925,440237.989,443672.233,,,
fixation,canvas.Screen,0_8_38_0,2022-07-15T22:05:55.686Z,,,,,,6,733.9649999999674,timeout,,,0.485,,,,,,,,,,,,,,,,,0.455,false,444157.4000000004,444156.176,443572.741,443574.80000000075,443672.233,444406.198,,,
stimulus,canvas.Screen,0_8_38_1,2022-07-15T22:05:56.901Z,,,,,,6,963.8020000000251,response,,0.485,0.485,,,https://raw.githubusercontent.com/carero2/loss-perception/main/png/0.485blue1yellowb%3D1w%3D100v%3D28.png,https://raw.githubusercontent.com/carero2/loss-perception/main/png/0.455blue1yellowb%3D1w%3D100v%3D28.png,,,,,,,,,true,j,keypress(j),0.455,0.455,false,445372.19999999925,445370,444156.176,444423.19999999925,444406.198,445489.419,,,
choice,canvas.Screen,0_8_38_2,2022-07-15T22:05:58.003Z,,,,0.455,,6,1083.6259999999893,timeout,,,0.485,,0.485,,,9,72,,,,,,,,,,,0.455,false,446474.5999999996,446473.491,445406.338,445409,445489.419,446573.045,172,,
ITI,canvas.Screen,0_8_38_3,2022-07-15T22:05:58.587Z,,,2024,,,6,583.4850000000442,timeout,,,0.485,,,,,,,,,,,,,,,,,0.455,false,447058.0999999996,447056.923,446473.491,446474.9000000004,446573.045,447156.53,,,
trial,flow.Sequence,0_8_38,2022-07-15T22:05:58.587Z,,,,,,6,3384.6900000000023,completion,,,0.485,,,,,,,,,,,,,,,,,0.455,false,447058.80000000075,447056.923,443572.741,443574.69999999925,443672.233,447156.53,,,
fixation,canvas.Screen,0_8_39_0,2022-07-15T22:05:59.170Z,,,,,,2,933.8289999999688,timeout,,,0.495,,,,,,,,,,,,,,,,,0.485,false,447641.5999999996,447640.37,447056.923,447059.0999999996,447156.53,448090.359,,,
stimulus,canvas.Screen,0_8_39_1,2022-07-15T22:06:00.886Z,,,,,,2,1265.1410000000033,response,,0.495,0.495,,,https://raw.githubusercontent.com/carero2/loss-perception/main/png/0.495blue1yellowb%3D1w%3D100v%3D38.png,https://raw.githubusercontent.com/carero2/loss-perception/main/png/0.485blue1yellowb%3D1w%3D100v%3D38.png,,,,,,,,,true,f,keypress(f),0.485,0.485,false,449357.5999999996,449355.5,447640.37,448107.4000000004,448090.359,449473.836,,,
choice,canvas.Screen,0_8_39_2,2022-07-15T22:06:01.988Z,,,,0.495,,2,1083.6109999999753,timeout,,,0.495,,0.485,,,1,73,,,,,,,,,,,0.485,false,450459,450457.866,449390.558,449394,449473.836,450557.447,173,,
ITI,canvas.Screen,0_8_39_3,2022-07-15T22:06:02.571Z,,,2340,,,2,583.4490000000224,timeout,,,0.495,,,,,,,,,,,,,,,,,0.485,false,451042.5,451041.429,450457.866,450459.5,450557.447,451140.896,,,
trial,flow.Sequence,0_8_39,2022-07-15T22:06:02.572Z,,,,,,2,3884.898999999976,completion,,,0.495,,,,,,,,,,,,,,,,,0.485,false,451043.19999999925,451041.429,447056.923,447059.0999999996,447156.53,451140.896,,,
fixation,canvas.Screen,0_8_40_0,2022-07-15T22:06:03.155Z,,,,,,6,734.0210000000079,timeout,,,0.515,,,,,,,,,,,,,,,,,0.485,true,451625.9000000004,451624.879,451041.429,451043.4000000004,451140.896,451874.917,,,
stimulus,canvas.Screen,0_8_40_1,2022-07-15T22:06:04.285Z,,,,,,6,879.7829999992391,response,,0.485,0.515,,,https://raw.githubusercontent.com/carero2/loss-perception/main/png/0.485blue1yellowb%3D1w%3D100v%3D36.png,https://raw.githubusercontent.com/carero2/loss-perception/main/png/0.515blue1yellowb%3D1w%3D100v%3D36.png,,,,,,,,,true,f,keypress(f),0.515,0.485,true,452756.69999999925,452754.69999999925,451624.879,451891.9000000004,451874.917,452874.694,,,
choice,canvas.Screen,0_8_40_2,2022-07-15T22:06:05.389Z,,,,0.485,,6,1083.6719999999623,timeout,,,0.515,,0.515,,,3,76,,,,,,,,,,,0.485,true,453860,453858.849,452791.479,452792.19999999925,452874.694,453958.366,176,,
ITI,canvas.Screen,0_8_40_3,2022-07-15T22:06:05.972Z,,,2759,,,6,583.4920000000275,timeout,,,0.515,,,,,,,,,,,,,,,,,0.485,true,454443.5,454442.343,453858.849,453860.30000000075,453958.366,454541.858,,,
trial,flow.Sequence,0_8_40,2022-07-15T22:06:05.973Z,,,,,,6,3301.4469999999856,completion,,,0.515,,,,,,,,,,,,,,,,,0.485,true,454444,454442.343,451041.429,451043.4000000004,451140.896,454541.858,,,
fixation,canvas.Screen,0_8_41_0,2022-07-15T22:06:06.556Z,,,,,,2,750.6350000000093,timeout,,,0.515,,,,,,,,,,,,,,,,,0.505,true,455026.9000000004,455025.833,454442.343,454444.30000000075,454541.858,455292.493,,,
stimulus,canvas.Screen,0_8_41_1,2022-07-15T22:06:07.970Z,,,,,,2,1146.5069999999832,response,,0.505,0.515,,,https://raw.githubusercontent.com/carero2/loss-perception/main/png/0.505blue1yellowb%3D1w%3D100v%3D100.png,https://raw.githubusercontent.com/carero2/loss-perception/main/png/0.515blue1yellowb%3D1w%3D100v%3D100.png,,,,,,,,,true,f,keypress(f),0.515,0.505,true,456440.9000000004,456439,455025.833,455309.4000000004,455292.493,456559.03,,,
choice,canvas.Screen,0_8_41_2,2022-07-15T22:06:09.073Z,,,,0.505,,2,1083.6779999999562,timeout,,,0.515,,0.515,,,-1,75,,,,,,,,,,,0.505,true,457544.4000000004,457543.193,456475.795,456475.9000000004,456559.03,457642.708,175,,
ITI,canvas.Screen,0_8_41_3,2022-07-15T22:06:09.656Z,,,2241,,,2,583.4420000000391,timeout,,,0.515,,,,,,,,,,,,,,,,,0.505,true,458127.69999999925,458126.622,457543.193,457544.80000000075,457642.708,458226.15,,,
trial,flow.Sequence,0_8_41,2022-07-15T22:06:09.657Z,,,,,,2,3584.7639999999665,completion,,,0.515,,,,,,,,,,,,,,,,,0.505,true,458128.30000000075,458126.622,454442.343,454444.30000000075,454541.858,458226.15,,,
fixation,canvas.Screen,0_8_42_0,2022-07-15T22:06:10.240Z,,,,,,6,800.2550000000047,timeout,,,0.545,,,,,,,,,,,,,,,,,0.515,true,458711.30000000075,458710.169,458126.622,458128.5,458226.15,459026.405,,,
stimulus,canvas.Screen,0_8_42_1,2022-07-15T22:06:11.512Z,,,,,,6,954.4950000003446,response,,0.515,0.545,,,https://raw.githubusercontent.com/carero2/loss-perception/main/png/0.515blue1yellowb%3D1w%3D100v%3D34.png,https://raw.githubusercontent.com/carero2/loss-perception/main/png/0.545blue1yellowb%3D1w%3D100v%3D34.png,,,,,,,,,true,f,keypress(f),0.545,0.515,true,459982.9000000004,459980.9000000004,458710.169,459043.30000000075,459026.405,460043.319,,,
choice,canvas.Screen,0_8_42_2,2022-07-15T22:06:12.557Z,,,,0.515,,6,1083.6509999999544,timeout,,,0.545,,0.545,,,-3,72,,,,,,,,,,,0.515,true,461028.5,461027.44,459993.691,460001.9000000004,460043.319,461126.97,172,,
ITI,canvas.Screen,0_8_42_3,2022-07-15T22:06:13.140Z,,,2480,,,6,533.4210000000312,timeout,,,0.545,,,,,,,,,,,,,,,,,0.515,true,461611.0999999996,461610.397,461027.44,461029,461126.97,461660.391,,,
trial,flow.Sequence,0_8_42,2022-07-15T22:06:13.140Z,,,,,,6,3384.246999999974,completion,,,0.545,,,,,,,,,,,,,,,,,0.515,true,461611.5,461610.397,458126.622,458128.4000000004,458226.15,461660.391,,,
fixation,canvas.Screen,0_8_43_0,2022-07-15T22:06:13.674Z,,,,,,4,950.810999999987,timeout,,,0.49,,,,,,,,,,,,,,,,,0.47,false,462145.5999999996,462144.383,461610.397,461611.69999999925,461660.391,462611.202,,,
stimulus,canvas.Screen,0_8_43_1,2022-07-15T22:06:15.080Z,,,,,,4,937.6980000003823,response,,0.49,0.49,,,https://raw.githubusercontent.com/carero2/loss-perception/main/png/0.49blue1yellowb%3D1w%3D100v%3D45.png,https://raw.githubusercontent.com/carero2/loss-perception/main/png/0.47blue1yellowb%3D1w%3D100v%3D45.png,,,,,,,,,true,j,keypress(j),0.47,0.47,false,463550.80000000075,463548.9000000004,462144.383,462644.0999999996,462611.202,463677.652,,,
choice,canvas.Screen,0_8_43_2,2022-07-15T22:06:16.192Z,,,,0.47,,4,1083.6049999999814,timeout,,,0.49,,0.49,,,6,78,,,,,,,,,,,0.47,false,464662.9000000004,464661.691,463577.701,463586.5999999996,463677.652,464761.257,178,,
ITI,canvas.Screen,0_8_43_3,2022-07-15T22:06:16.775Z,,,2828,,,4,583.4920000000275,timeout,,,0.49,,,,,,,,,,,,,,,,,0.47,false,465246.5,465245.261,464661.691,464663.30000000075,464761.257,465344.749,,,
trial,flow.Sequence,0_8_43,2022-07-15T22:06:16.776Z,,,,,,4,3584.8699999999953,completion,,,0.49,,,,,,,,,,,,,,,,,0.47,false,465247.0999999996,465245.261,461610.397,461611.69999999925,461660.391,465344.749,,,
fixation,canvas.Screen,0_8_44_0,2022-07-15T22:06:17.358Z,,,,,,4,767.3779999999679,timeout,,,0.53,,,,,,,,,,,,,,,,,0.51,false,465829.80000000075,465828.757,465245.261,465247.5,465344.749,466112.127,,,
stimulus,canvas.Screen,0_8_44_1,2022-07-15T22:06:19.077Z,,,,,,4,1434.472999999649,response,,0.53,0.53,,,https://raw.githubusercontent.com/carero2/loss-perception/main/png/0.53blue1yellowb%3D1w%3D100v%3D95.png,https://raw.githubusercontent.com/carero2/loss-perception/main/png/0.51blue1yellowb%3D1w%3D100v%3D95.png,,,,,,,,,true,f,keypress(f),0.51,0.51,false,467548.80000000075,467546.5999999996,465828.757,466129,466112.127,467628.663,,,
choice,canvas.Screen,0_8_44_2,2022-07-15T22:06:20.143Z,,,,0.53,,4,1083.7019999999902,timeout,,,0.53,,0.51,,,-6,72,,,,,,,,,,,0.51,false,468614,468612.815,467579.109,467584.5999999996,467628.663,468712.365,172,,
ITI,canvas.Screen,0_8_44_3,2022-07-15T22:06:20.726Z,,,2228,,,4,533.4519999999902,timeout,,,0.53,,,,,,,,,,,,,,,,,0.51,false,469197.19999999925,469196.12,468612.815,468614.5,468712.365,469245.817,,,
trial,flow.Sequence,0_8_44,2022-07-15T22:06:20.727Z,,,,,,4,3851.3709999999846,completion,,,0.53,,,,,,,,,,,,,,,,,0.51,false,469197.9000000004,469196.12,465245.261,465247.4000000004,465344.749,469245.817,,,
1st block,flow.Loop,0_8,2022-07-15T22:06:20.727Z,,,,,,,158876.57,completion,,,,,,,,,,,,,,,,,,,,,,469198.30000000075,469196.12,310219.6,310222.30000000075,310319.55,469245.817,,,
show amount,html.Screen,0_9,2022-07-15T22:06:31.287Z,,,,,,,10506.882999999274,response,,,,,,,,,,,,,,,,,Continue,click #Continue,,,,479758.5,479752.69999999925,469196.12,469200.19999999925,469245.817,479865.356,,,
second block,canvas.Screen,0_10,2022-07-15T22:06:34.639Z,,,,,,,3243.643999999971,response,,,,,,,,,,,,,,,,,space,keypress(Space),,,,483110.0999999996,483109,479749.174,479758.80000000075,479865.356,483182.884,,,
fixation,canvas.Screen,0_11_0_0,2022-07-15T22:06:35.197Z,,,,,,2,783.5909999999567,timeout,,,0.515,,,,,,,,,,,,,,,,,0.505,true,483668.0999999996,483666.922,483099.638,483110.5,483182.884,483966.475,,,
stimulus,canvas.Screen,0_11_0_1,2022-07-15T22:06:36.505Z,,,,,,2,1008.7249999992782,response,,0.505,0.515,,,https://raw.githubusercontent.com/carero2/loss-perception/main/png/0.505blue1yellowb%3D1w%3D100v%3D92.png,https://raw.githubusercontent.com/carero2/loss-perception/main/png/0.515blue1yellowb%3D1w%3D100v%3D92.png,,,,,,,,,true,j,keypress(j),0.515,0.505,true,484976.69999999925,484975.19999999925,483666.922,483983.19999999925,483966.475,485100.116,,,
choice,canvas.Screen,0_11_0_2,2022-07-15T22:06:37.614Z,,,,0.515,,2,1083.63400000002,timeout,,,0.515,,0.505,,,-3,,-3,,,,,,,,,,0.505,true,486085.5,486084.226,485000.47,485013.0999999996,485100.116,486183.75,169,,
ITI,canvas.Screen,0_11_0_3,2022-07-15T22:06:38.198Z,,,2127,,,2,583.4799999999814,timeout,,,0.515,,,,,,,,,,,,,,,,,0.505,true,486668.9000000004,486667.678,486084.226,486085.69999999925,486183.75,486767.23,,,
trial,flow.Sequence,0_11_0,2022-07-15T22:06:38.199Z,,,,,,2,3484.7939999999944,completion,,,0.515,,,,,,,,,,,,,,,,,0.505,true,486669.5,486667.678,483099.638,483110.5,483182.884,486767.23,,,
fixation,canvas.Screen,0_11_1_0,2022-07-15T22:06:38.781Z,,,,,,6,733.5120000000461,timeout,,,0.485,,,,,,,,,,,,,,,,,0.455,false,487252.30000000075,487251.21,486667.678,486669.80000000075,486767.23,487500.742,,,
stimulus,canvas.Screen,0_11_1_1,2022-07-15T22:06:39.737Z,,,,,,6,704.8579999996,response,,0.485,0.485,,,https://raw.githubusercontent.com/carero2/loss-perception/main/png/0.485blue1yellowb%3D1w%3D100v%3D18.png,https://raw.githubusercontent.com/carero2/loss-perception/main/png/0.455blue1yellowb%3D1w%3D100v%3D18.png,,,,,,,,,true,j,keypress(j),0.455,0.455,false,488207.30000000075,488205.5999999996,487251.21,487517.80000000075,487500.742,488334.278,,,
choice,canvas.Screen,0_11_1_2,2022-07-15T22:06:40.849Z,,,,0.455,,6,1083.628000000026,timeout,,,0.485,,0.485,,,9,,6,,,,,,,,,,0.455,false,489319.5999999996,489318.436,488234.407,488242.5,488334.278,489417.906,178,,
ITI,canvas.Screen,0_11_1_3,2022-07-15T22:06:41.432Z,,,2079,,,6,583.5129999999772,timeout,,,0.485,,,,,,,,,,,,,,,,,0.455,false,489902.9000000004,489901.887,489318.436,489319.9000000004,489417.906,490001.419,,,
trial,flow.Sequence,0_11_1,2022-07-15T22:06:41.433Z,,,,,,6,3134.6570000000065,completion,,,0.485,,,,,,,,,,,,,,,,,0.455,false,489903.5,489901.887,486667.678,486669.69999999925,486767.23,490001.419,,,
fixation,canvas.Screen,0_11_2_0,2022-07-15T22:06:42.015Z,,,,,,4,750.4880000000121,timeout,,,0.49,,,,,,,,,,,,,,,,,0.47,true,490486.30000000075,490485.256,489901.887,489903.80000000075,490001.419,490751.907,,,
stimulus,canvas.Screen,0_11_2_1,2022-07-15T22:06:42.944Z,,,,,,4,660.5929999999935,response,,0.47,0.49,,,https://raw.githubusercontent.com/carero2/loss-perception/main/png/0.47blue1yellowb%3D1w%3D100v%3D50.png,https://raw.githubusercontent.com/carero2/loss-perception/main/png/0.49blue1yellowb%3D1w%3D100v%3D50.png,,,,,,,,,true,f,keypress(f),0.49,0.47,true,491414.30000000075,491412.5,490485.256,490784.69999999925,490751.907,491535.184,,,
choice,canvas.Screen,0_11_2_2,2022-07-15T22:06:44.050Z,,,,0.47,,4,1083.6290000000154,timeout,,,0.49,,0.49,,,6,,12,,,,,,,,,,0.47,true,492520.5,492519.332,491435.527,491450,491535.184,492618.813,184,,
ITI,canvas.Screen,0_11_2_3,2022-07-15T22:06:44.633Z,,,2989,,,4,583.4890000000014,timeout,,,0.49,,,,,,,,,,,,,,,,,0.47,true,493104.0999999996,493102.81,492519.332,492520.9000000004,492618.813,493202.302,,,
trial,flow.Sequence,0_11_2,2022-07-15T22:06:44.634Z,,,,,,4,3101.3910000000033,completion,,,0.49,,,,,,,,,,,,,,,,,0.47,true,493104.80000000075,493102.81,489901.887,489903.69999999925,490001.419,493202.302,,,
fixation,canvas.Screen,0_11_3_0,2022-07-15T22:06:45.216Z,,,,,,2,767.1119999999646,timeout,,,0.505,,,,,,,,,,,,,,,,,0.495,true,493687.30000000075,493686.228,493102.81,493105.0999999996,493202.302,493969.414,,,
stimulus,canvas.Screen,0_11_3_1,2022-07-15T22:06:46.301Z,,,,,,2,800.2859999992652,response,,0.495,0.505,,,https://raw.githubusercontent.com/carero2/loss-perception/main/png/0.495blue1yellowb%3D1w%3D100v%3D20.png,https://raw.githubusercontent.com/carero2/loss-perception/main/png/0.505blue1yellowb%3D1w%3D100v%3D20.png,,,,,,,,,true,f,keypress(f),0.505,0.495,true,494771.69999999925,494769.69999999925,493686.228,493986.19999999925,493969.414,494886.063,,,
choice,canvas.Screen,0_11_3_2,2022-07-15T22:06:47.400Z,,,,0.495,,2,1083.6199999999953,timeout,,,0.505,,0.505,,,1,,13,,,,,,,,,,0.495,true,495871.19999999925,495870.118,494802.787,494806,494886.063,495969.683,185,,
