sender,sender_type,sender_id,timestamp,meta,,ITI_value,choice,consent,diff_net_value,duration,ended_on,gain_color,left,left_side,loss_color,not_choice,picture_left,picture_right,points,points1Block,points2Block,points3Block,points4Block,points5Block,points6Block,pointsBlock,responded,response,response_action,right,right_side,switch_sides,time_commit,time_end,time_render,time_run,time_show,time_switch,totalPoints,totalPoints_practice,url
welcome,html.Screen,0_0,2022-07-15T14:13:18.628Z,"{""labjs_version"":""20.2.4"",""labjs_build"":{""flavor"":""production"",""commit"":""f5b4a49f956347addd546a832a3327688c2c0fef""},""location"":""https://run.pavlovia.org/Rey/loss-perception/"",""userAgent"":""Mozilla/5.0 (Windows NT 10.0; Win64; x64) AppleWebKit/537.36 (KHTML, like Gecko) Chrome/103.0.0.0 Safari/537.36"",""platform"":""Win32"",""language"":""en-US"",""locale"":""en-GB"",""timeZone"":""Europe/London"",""timezoneOffset"":-60,""screen_width"":1366,""screen_height"":768,""scroll_width"":1366,""scroll_height"":577,""window_innerWidth"":1366,""window_innerHeight"":625,""devicePixelRatio"":1}",,,,,,2786.3010000953673,response,blue,,,yellow,,,,,0,0,0,0,0,0,0,,Continue,click #Continue,,,,10808.100000023842,10802.400000095367,7932.71,7959.900000095367,8016.099,10832.595,100,100,{}
consent,html.Form,0_1,2022-07-15T14:13:34.242Z,,,,,true,,15588.905,form submission,,,,,,,,,,,,,,,,,,,,,,26422,26421.5,10799.313,10808.800000071526,10832.595,26431.796,,,
ProlificID,html.Form,0_2,2022-07-15T14:13:45.867Z,,,,,,,11614.504000071527,form submission,,,,,,,,,,,,,,,,,,,,,,38046.90000009537,38046.300000071526,26415.272,26422.400000095367,26431.796,38064.449,,,
instructions,html.Form,0_3,2022-07-15T14:14:15.371Z,,,,,,,29483.751000047683,form submission,,,,,,,,,,,,,,,,,,,,,,67548.90000009537,67548.20000004768,38047.78,38047.300000071526,38064.449,67596.2,,,
Practice,canvas.Screen,0_4,2022-07-15T14:14:20.638Z,,,,,,,5211.70000009537,response,,,,,,,,,,,,,,,,,space,keypress(Space),,,,72816.20000004768,72807.90000009537,67546.365,67549.10000002384,67596.2,72812.634,,,
fixation,canvas.Screen,0_5_0_0,2022-07-15T14:14:21.121Z,,,,,,6,549.9709999999905,timeout,,,0.485,,,,,,,,,,,,,,,,,0.455,false,73299.20000004768,73296.218,72796.242,72817.10000002384,72812.634,73362.605,,,
stimulus,canvas.Screen,0_5_0_1,2022-07-15T14:14:22.841Z,,,,,,6,1649.2950000953715,response,,0.485,0.485,,,https://raw.githubusercontent.com/carero2/loss-perception/main/png/0.485blue1yellowb%3D1w%3D100v%3D92.png,https://raw.githubusercontent.com/carero2/loss-perception/main/png/0.455blue1yellowb%3D1w%3D100v%3D92.png,,,,,,,,,true,j,keypress(j),0.455,0.455,false,75018.70000004768,75011.90000009537,73296.218,73299.90000009537,73362.605,75045.882,,,
choice,canvas.Screen,0_5_0_2,2022-07-15T14:14:24.854Z,,,,0.455,,6,2000.3150000000023,timeout,,,0.485,,0.485,,,-9,,,,,,,-9,,,,,0.455,false,77031.60000002384,77029.348,75029.449,75031.10000002384,75045.882,77046.197,,91,
timeout,canvas.Screen,0_5_0_3,2022-07-15T14:14:24.862Z,,,,,,6,NaN,skipped,,,0.485,,,,,,,,,,,,,,,,,0.455,false,77039.70000004768,77029.348,,77038.80000007153,,77046.197,,,
ITI,canvas.Screen,0_5_0_4,2022-07-15T14:14:25.352Z,,,,,,6,499.4320000000007,timeout,,,0.485,,,,,,,,,,,,,,,,,0.455,false,77530.20000004768,77529.02,77029.348,77040.40000009537,77046.197,77545.629,,,
trial,flow.Sequence,0_5_0,2022-07-15T14:14:25.353Z,,,,,,6,4716.385999999999,completion,,,0.485,,,,,,,,,,,,,,,,,0.455,false,77531.40000009537,77529.02,72796.242,72817,72812.634,77545.629,,,
fixation,canvas.Screen,0_5_1_0,2022-07-15T14:14:25.853Z,,,,,,18,500.1490000000049,timeout,,,0.545,,,,,,,,,,,,,,,,,0.455,true,78030.90000009537,78029.167,77529.02,77531.90000009537,77545.629,78045.778,,,
stimulus,canvas.Screen,0_5_1_1,2022-07-15T14:14:28.165Z,,,,,,18,2293.52200007152,response,,0.455,0.545,,,https://raw.githubusercontent.com/carero2/loss-perception/main/png/0.455blue1yellowb%3D1w%3D100v%3D55.png,https://raw.githubusercontent.com/carero2/loss-perception/main/png/0.545blue1yellowb%3D1w%3D100v%3D55.png,,,,,,,,,true,f,keypress(f),0.545,0.455,true,80343.5,80339.30000007153,78029.167,78031.40000009537,78045.778,80362.251,,,
choice,canvas.Screen,0_5_1_2,2022-07-15T14:14:30.170Z,,,,0.455,,18,1999.9349999999977,timeout,,,0.545,,0.545,,,-9,,,,,,,-18,,,,,0.455,true,82348.10000002384,82345.731,80345.781,80357.10000002384,80362.251,82362.186,,82,
timeout,canvas.Screen,0_5_1_3,2022-07-15T14:14:30.176Z,,,,,,18,NaN,skipped,,,0.545,,,,,,,,,,,,,,,,,0.455,true,82353.90000009537,82345.731,,82352.90000009537,,82362.186,,,
ITI,canvas.Screen,0_5_1_4,2022-07-15T14:14:30.669Z,,,,,,18,499.88000000000466,timeout,,,0.545,,,,,,,,,,,,,,,,,0.455,true,82847.10000002384,82845.612,82345.731,82354.40000009537,82362.186,82862.066,,,
trial,flow.Sequence,0_5_1,2022-07-15T14:14:30.670Z,,,,,,18,5299.982999999993,completion,,,0.545,,,,,,,,,,,,,,,,,0.455,true,82847.80000007153,82845.612,77529.02,77531.80000007153,77545.629,82862.066,,,
fixation,canvas.Screen,0_5_2_0,2022-07-15T14:14:31.169Z,,,,,,12,499.9789999999921,timeout,,,0.53,,,,,,,,,,,,,,,,,0.47,false,83347.5,83345.677,82845.612,82848.5,82862.066,83362.045,,,
stimulus,canvas.Screen,0_5_2_1,2022-07-15T14:14:33.787Z,,,,,,12,2599.1550000476855,response,,0.53,0.53,,,https://raw.githubusercontent.com/carero2/loss-perception/main/png/0.53blue1yellowb%3D1w%3D100v%3D47.png,https://raw.githubusercontent.com/carero2/loss-perception/main/png/0.47blue1yellowb%3D1w%3D100v%3D47.png,,,,,,,,,true,j,keypress(j),0.47,0.47,false,85965.20000004768,85961.20000004768,83345.677,83348,83362.045,86007.288,,,
choice,canvas.Screen,0_5_2_2,2022-07-15T14:14:35.819Z,,,,0.47,,12,2004.5720000000001,timeout,,,0.53,,0.53,,,-6,,,,,,,-24,,,,,0.47,false,87997.10000002384,87995.19,85961.903,85977.30000007153,86007.288,88011.86,,76,
timeout,canvas.Screen,0_5_2_3,2022-07-15T14:14:35.823Z,,,,,,12,NaN,skipped,,,0.53,,,,,,,,,,,,,,,,,0.47,false,88001.60000002384,87995.19,,88000.60000002384,,88011.86,,,
ITI,canvas.Screen,0_5_2_4,2022-07-15T14:14:36.319Z,,,,,,12,500.0439999999944,timeout,,,0.53,,,,,,,,,,,,,,,,,0.47,false,88497.20000004768,88495.361,87995.19,88002,88011.86,88511.904,,,
trial,flow.Sequence,0_5_2,2022-07-15T14:14:36.320Z,,,,,,12,5633.294999999998,completion,,,0.53,,,,,,,,,,,,,,,,,0.47,false,88497.90000009537,88495.361,82845.612,82848.20000004768,82862.066,88511.904,,,
fixation,canvas.Screen,0_5_3_0,2022-07-15T14:14:36.819Z,,,,,,6,499.846000000005,timeout,,,0.515,,,,,,,,,,,,,,,,,0.485,false,88996.70000004768,88995.328,88495.361,88498.40000009537,88511.904,89011.75,,,
stimulus,canvas.Screen,0_5_3_1,2022-07-15T14:14:38.681Z,,,,,,6,1844.0500000715256,response,,0.515,0.515,,,https://raw.githubusercontent.com/carero2/loss-perception/main/png/0.515blue1yellowb%3D1w%3D100v%3D75.png,https://raw.githubusercontent.com/carero2/loss-perception/main/png/0.485blue1yellowb%3D1w%3D100v%3D75.png,,,,,,,,,true,f,keypress(f),0.485,0.485,false,90859.30000007153,90855.80000007153,88995.328,88996.90000009537,89011.75,90928.234,,,
choice,canvas.Screen,0_5_3_2,2022-07-15T14:14:40.736Z,,,,0.515,,6,2000.076000000001,timeout,,,0.515,,0.485,,,3,,,,,,,-21,,,,,0.485,false,92914.10000002384,92911.814,90861.861,90866,90928.234,92928.31,,79,
timeout,canvas.Screen,0_5_3_3,2022-07-15T14:14:40.741Z,,,,,,6,NaN,skipped,,,0.515,,,,,,,,,,,,,,,,,0.485,false,92919.40000009537,92911.814,,92918.90000009537,,92928.31,,,
ITI,canvas.Screen,0_5_3_4,2022-07-15T14:14:41.236Z,,,,,,6,500.09799999999814,timeout,,,0.515,,,,,,,,,,,,,,,,,0.485,false,93413.80000007153,93411.822,92911.814,92919.90000009537,92928.31,93428.408,,,
trial,flow.Sequence,0_5_3,2022-07-15T14:14:41.237Z,,,,,,6,4899.918000000005,completion,,,0.515,,,,,,,,,,,,,,,,,0.485,false,93414.60000002384,93411.822,88495.361,88498.20000004768,88511.904,93428.408,,,
fixation,canvas.Screen,0_5_4_0,2022-07-15T14:14:41.735Z,,,,,,6,499.69800000000396,timeout,,,0.545,,,,,,,,,,,,,,,,,0.515,true,93913.5,93911.772,93411.822,93415.10000002384,93428.408,93928.106,,,
stimulus,canvas.Screen,0_5_4_1,2022-07-15T14:14:42.859Z,,,,,,6,1103.494000023842,response,,0.515,0.545,,,https://raw.githubusercontent.com/carero2/loss-perception/main/png/0.515blue1yellowb%3D1w%3D100v%3D95.png,https://raw.githubusercontent.com/carero2/loss-perception/main/png/0.545blue1yellowb%3D1w%3D100v%3D95.png,,,,,,,,,true,j,keypress(j),0.545,0.515,true,95036.60000002384,95031.60000002384,93911.772,93914,93928.106,95094.827,,,
choice,canvas.Screen,0_5_4_2,2022-07-15T14:14:44.902Z,,,,0.545,,6,1999.9229999999952,timeout,,,0.545,,0.515,,,9,,,,,,,-12,,,,,0.515,true,97080.10000002384,97078.082,95044.932,95049.30000007153,95094.827,97094.75,,88,
timeout,canvas.Screen,0_5_4_3,2022-07-15T14:14:44.907Z,,,,,,6,NaN,skipped,,,0.545,,,,,,,,,,,,,,,,,0.515,true,97084.60000002384,97078.082,,97084.10000002384,,97094.75,,,
ITI,canvas.Screen,0_5_4_4,2022-07-15T14:14:45.402Z,,,,,,6,499.9030000000057,timeout,,,0.545,,,,,,,,,,,,,,,,,0.515,true,97580,97578.266,97078.082,97085.10000002384,97094.75,97594.653,,,
trial,flow.Sequence,0_5_4,2022-07-15T14:14:45.403Z,,,,,,6,4149.858000000007,completion,,,0.545,,,,,,,,,,,,,,,,,0.515,true,97580.80000007153,97578.266,93411.822,93415,93428.408,97594.653,,,
fixation,canvas.Screen,0_5_5_0,2022-07-15T14:14:45.902Z,,,,,,9,499.8719999999885,timeout,,,0.485,,,,,,,,,,,,,,,,,0.53,false,98079.70000004768,98078.036,97578.266,97581.30000007153,97594.653,98094.525,,,
stimulus,canvas.Screen,0_5_5_1,2022-07-15T14:14:46.979Z,,,,,,9,1060.1750000476895,response,,0.485,0.485,,,https://raw.githubusercontent.com/carero2/loss-perception/main/png/0.485blue1yellowb%3D1w%3D100v%3D87.png,https://raw.githubusercontent.com/carero2/loss-perception/main/png/0.53blue1yellowb%3D1w%3D100v%3D87.png,,,,,,,,,true,j,keypress(j),0.53,0.53,false,99156.70000004768,99154.70000004768,98078.036,98080.10000002384,98094.525,99194.507,,,
choice,canvas.Screen,0_5_5_2,2022-07-15T14:14:49.001Z,,,,0.53,,9,1999.851999999999,timeout,,,0.485,,0.485,,,6,,,,,,,-6,,,,,0.53,false,101179.5,101177.987,99161.233,99160.90000009537,99194.507,101194.359,,94,
timeout,canvas.Screen,0_5_5_3,2022-07-15T14:14:49.006Z,,,,,,9,NaN,skipped,,,0.485,,,,,,,,,,,,,,,,,0.53,false,101184.60000002384,101177.987,,101183.90000009537,,101194.359,,,
ITI,canvas.Screen,0_5_5_4,2022-07-15T14:14:49.502Z,,,,,,9,500.0920000000042,timeout,,,0.485,,,,,,,,,,,,,,,,,0.53,false,101680,101678.013,101177.987,101185,101194.359,101694.451,,,
trial,flow.Sequence,0_5_5,2022-07-15T14:14:49.503Z,,,,,,9,4083.3600000000006,completion,,,0.485,,,,,,,,,,,,,,,,,0.53,false,101680.70000004768,101678.013,97578.266,97581.20000004768,97594.653,101694.451,,,
fixation,canvas.Screen,0_5_6_0,2022-07-15T14:14:50.002Z,,,,,,9,499.9579999999987,timeout,,,0.485,,,,,,,,,,,,,,,,,0.53,false,102179.70000004768,102177.992,101678.013,101681.20000004768,101694.451,102194.409,,,
stimulus,canvas.Screen,0_5_6_1,2022-07-15T14:14:51.301Z,,,,,,9,1279.9910000953678,response,,0.485,0.485,,,https://raw.githubusercontent.com/carero2/loss-perception/main/png/0.485blue1yellowb%3D1w%3D100v%3D12.png,https://raw.githubusercontent.com/carero2/loss-perception/main/png/0.53blue1yellowb%3D1w%3D100v%3D12.png,,,,,,,,,true,j,keypress(j),0.53,0.53,false,103479.30000007153,103474.40000009537,102177.992,102180.30000007153,102194.409,103494.3,,,
choice,canvas.Screen,0_5_6_2,2022-07-15T14:14:53.218Z,,,,0.53,,9,1916.6330000000016,timeout,,,0.485,,0.485,,,6,,,,,,,0,,,,,0.53,false,105396.30000007153,105394.277,103477.806,103488.90000009537,103494.3,105410.933,,100,
timeout,canvas.Screen,0_5_6_3,2022-07-15T14:14:53.222Z,,,,,,9,NaN,skipped,,,0.485,,,,,,,,,,,,,,,,,0.53,false,105400.10000002384,105394.277,,105399.5,,105410.933,,,
ITI,canvas.Screen,0_5_6_4,2022-07-15T14:14:53.718Z,,,,,,9,499.86299999999756,timeout,,,0.485,,,,,,,,,,,,,,,,,0.53,false,105896.30000007153,105894.438,105394.277,105400.5,105410.933,105910.796,,,
trial,flow.Sequence,0_5_6,2022-07-15T14:14:53.719Z,,,,,,9,4199.986999999994,completion,,,0.485,,,,,,,,,,,,,,,,,0.53,false,105897.20000004768,105894.438,101678.013,101681,101694.451,105910.796,,,
fixation,canvas.Screen,0_5_7_0,2022-07-15T14:14:54.218Z,,,,,,18,500.3249999999971,timeout,,,0.545,,,,,,,,,,,,,,,,,0.455,false,106395.60000002384,106394.322,105894.438,105897.80000007153,105910.796,106411.121,,,
stimulus,canvas.Screen,0_5_7_1,2022-07-15T14:14:57.218Z,,,,,,18,2999.600999999995,timeout,,0.545,0.545,,,https://raw.githubusercontent.com/carero2/loss-perception/main/png/0.545blue1yellowb%3D1w%3D100v%3D51.png,https://raw.githubusercontent.com/carero2/loss-perception/main/png/0.455blue1yellowb%3D1w%3D100v%3D51.png,,,,,,,,,,,,0.455,0.455,false,109396.30000007153,109394.278,106394.322,106396.10000002384,106411.121,109410.722,,,
choice,canvas.Screen,0_5_7_2,2022-07-15T14:14:57.233Z,,,,0,,18,NaN,skipped,,,0.545,,0,,,0,,,,,,,0,false,timeout,,,0.455,false,109411.5,109394.278,,109410,,109410.722,,100,
timeout,canvas.Screen,0_5_7_3,2022-07-15T14:14:59.218Z,,,,,,18,1999.8010000000068,timeout,,,0.545,,,,,,,,,,,,,,,,,0.455,false,111396.10000002384,111394.167,109394.278,109415.60000002384,109410.722,111410.523,,,
ITI,canvas.Screen,0_5_7_4,2022-07-15T14:14:59.718Z,,,,,,18,499.99000000000524,timeout,,,0.545,,,,,,,,,,,,,,,,,0.455,false,111896.10000002384,111894.195,111394.167,111396.60000002384,111410.523,111910.513,,,
trial,flow.Sequence,0_5_7,2022-07-15T14:14:59.719Z,,,,,,18,5983.399000000005,completion,,,0.545,,,,,,,,,,,,,,,,,0.455,false,111896.80000007153,111894.195,105894.438,105897.5,105910.796,111910.513,,,
fixation,canvas.Screen,0_5_8_0,2022-07-15T14:15:00.218Z,,,,,,12,499.97499999999127,timeout,,,0.53,,,,,,,,,,,,,,,,,0.47,false,112396.10000002384,112394.164,111894.195,111897.30000007153,111910.513,112410.488,,,
stimulus,canvas.Screen,0_5_8_1,2022-07-15T14:15:01.328Z,,,,,,12,1086.4120000953699,response,,0.53,0.53,,,https://raw.githubusercontent.com/carero2/loss-perception/main/png/0.53blue1yellowb%3D1w%3D100v%3D76.png,https://raw.githubusercontent.com/carero2/loss-perception/main/png/0.47blue1yellowb%3D1w%3D100v%3D76.png,,,,,,,,,true,f,keypress(f),0.47,0.47,false,113505.90000009537,113496.90000009537,112394.164,112396.5,112410.488,113527.09,,,
choice,canvas.Screen,0_5_8_2,2022-07-15T14:15:03.334Z,,,,0.53,,12,1999.8940000000002,timeout,,,0.53,,0.47,,,6,,,,,,,6,,,,,0.47,false,115512.20000004768,115510.401,113510.596,113514.70000004768,113527.09,115526.984,,106,
timeout,canvas.Screen,0_5_8_3,2022-07-15T14:15:03.341Z,,,,,,12,NaN,skipped,,,0.53,,,,,,,,,,,,,,,,,0.47,false,115518.90000009537,115510.401,,115518.20000004768,,115526.984,,,
ITI,canvas.Screen,0_5_8_4,2022-07-15T14:15:03.834Z,,,,,,12,499.9400000000023,timeout,,,0.53,,,,,,,,,,,,,,,,,0.47,false,116012.10000002384,116010.358,115510.401,115519.40000009537,115526.984,116026.924,,,
trial,flow.Sequence,0_5_8,2022-07-15T14:15:03.835Z,,,,,,12,4099.844999999987,completion,,,0.53,,,,,,,,,,,,,,,,,0.47,false,116012.80000007153,116010.358,111894.195,111897.10000002384,111910.513,116026.924,,,
fixation,canvas.Screen,0_5_9_0,2022-07-15T14:15:04.334Z,,,,,,6,499.94400000000314,timeout,,,0.545,,,,,,,,,,,,,,,,,0.515,false,116511.60000002384,116510.303,116010.358,116013.30000007153,116026.924,116526.868,,,
stimulus,canvas.Screen,0_5_9_1,2022-07-15T14:15:05.749Z,,,,,,6,1396.2320000238396,response,,0.545,0.545,,,https://raw.githubusercontent.com/carero2/loss-perception/main/png/0.545blue1yellowb%3D1w%3D100v%3D71.png,https://raw.githubusercontent.com/carero2/loss-perception/main/png/0.515blue1yellowb%3D1w%3D100v%3D71.png,,,,,,,,,true,f,keypress(f),0.515,0.515,false,117926.90000009537,117923.10000002384,116510.303,116512,116526.868,117943.535,,,
choice,canvas.Screen,0_5_9_2,2022-07-15T14:15:07.751Z,,,,0.545,,6,1999.9479999999894,timeout,,,0.545,,0.515,,,9,,,,,,,15,,,,,0.515,false,119929.10000002384,119926.984,117927.031,117941.40000009537,117943.535,119943.483,,115,
timeout,canvas.Screen,0_5_9_3,2022-07-15T14:15:07.755Z,,,,,,6,NaN,skipped,,,0.545,,,,,,,,,,,,,,,,,0.515,false,119932.90000009537,119926.984,,119932.30000007153,,119943.483,,,
ITI,canvas.Screen,0_5_9_4,2022-07-15T14:15:08.250Z,,,,,,6,500.04000000000815,timeout,,,0.545,,,,,,,,,,,,,,,,,0.515,false,120428,120426.725,119926.984,119933.30000007153,119943.483,120443.523,,,
trial,flow.Sequence,0_5_9,2022-07-15T14:15:08.251Z,,,,,,6,4399.801000000007,completion,,,0.545,,,,,,,,,,,,,,,,,0.515,false,120428.80000007153,120426.725,116010.358,116013.10000002384,116026.924,120443.523,,,
fixation,canvas.Screen,0_5_10_0,2022-07-15T14:15:08.751Z,,,,,,6,499.8329999999987,timeout,,,0.485,,,,,,,,,,,,,,,,,0.455,true,120928.70000004768,120926.763,120426.725,120429.30000007153,120443.523,120943.356,,,
stimulus,canvas.Screen,0_5_10_1,2022-07-15T14:15:10.781Z,,,,,,6,2007.244000023842,response,,0.455,0.485,,,https://raw.githubusercontent.com/carero2/loss-perception/main/png/0.455blue1yellowb%3D1w%3D100v%3D99.png,https://raw.githubusercontent.com/carero2/loss-perception/main/png/0.485blue1yellowb%3D1w%3D100v%3D99.png,,,,,,,,,true,j,keypress(j),0.485,0.455,true,122955.10000002384,122950.60000002384,120926.763,120929.30000007153,120943.356,122976.689,,,
choice,canvas.Screen,0_5_10_2,2022-07-15T14:15:12.788Z,,,,0.485,,6,1999.850999999995,timeout,,,0.485,,0.455,,,-3,,,,,,,12,,,,,0.455,true,124961.70000004768,124959.9,122959.97,122964.60000002384,122976.689,124976.54,,112,
timeout,canvas.Screen,0_5_10_3,2022-07-15T14:15:12.791Z,,,,,,6,NaN,skipped,,,0.485,,,,,,,,,,,,,,,,,0.455,true,124965.5,124959.9,,124964.80000007153,,124976.54,,,
ITI,canvas.Screen,0_5_10_4,2022-07-15T14:15:13.288Z,,,,,,6,499.8770000000077,timeout,,,0.485,,,,,,,,,,,,,,,,,0.455,true,125461.90000009537,125459.911,124959.9,124965.90000009537,124976.54,125476.417,,,
trial,flow.Sequence,0_5_10,2022-07-15T14:15:13.289Z,,,,,,6,5016.387999999992,completion,,,0.485,,,,,,,,,,,,,,,,,0.455,true,125462.80000007153,125459.911,120426.725,120429.20000004768,120443.523,125476.417,,,
fixation,canvas.Screen,0_5_11_0,2022-07-15T14:15:13.788Z,,,,,,6,499.9979999999923,timeout,,,0.515,,,,,,,,,,,,,,,,,0.485,true,125962,125960.118,125459.911,125463.30000007153,125476.417,125976.415,,,
stimulus,canvas.Screen,0_5_11_1,2022-07-15T14:15:15.572Z,,,,,,6,1767.0850000000064,response,,0.485,0.515,,,https://raw.githubusercontent.com/carero2/loss-perception/main/png/0.485blue1yellowb%3D1w%3D100v%3D47.png,https://raw.githubusercontent.com/carero2/loss-perception/main/png/0.515blue1yellowb%3D1w%3D100v%3D47.png,,,,,,,,,true,j,keypress(j),0.515,0.485,true,127746,127743.5,125960.118,125962.60000002384,125976.415,127776.355,,,
choice,canvas.Screen,0_5_11_2,2022-07-15T14:15:17.587Z,,,,0.515,,6,1999.9370000000054,timeout,,,0.515,,0.485,,,3,,,,,,,15,,,,,0.485,true,129761.30000007153,129759.75,127759.87,127761.60000002384,127776.355,129776.292,,115,
timeout,canvas.Screen,0_5_11_3,2022-07-15T14:15:17.592Z,,,,,,6,NaN,skipped,,,0.515,,,,,,,,,,,,,,,,,0.485,true,129765.70000004768,129759.75,,129764.90000009537,,129776.292,,,
ITI,canvas.Screen,0_5_11_4,2022-07-15T14:15:18.087Z,,,,,,6,499.877999999997,timeout,,,0.515,,,,,,,,,,,,,,,,,0.485,true,130261.30000007153,130259.705,129759.75,129766.20000004768,129776.292,130276.17,,,
trial,flow.Sequence,0_5_11,2022-07-15T14:15:18.088Z,,,,,,6,4783.2880000000005,completion,,,0.515,,,,,,,,,,,,,,,,,0.485,true,130262.10000002384,130259.705,125459.911,125463.20000004768,125476.417,130276.17,,,
fixation,canvas.Screen,0_5_12_0,2022-07-15T14:15:18.588Z,,,,,,6,501.1560000000027,timeout,,,0.515,,,,,,,,,,,,,,,,,0.485,true,130761.70000004768,130759.793,130259.705,130262.70000004768,130276.17,130777.326,,,
stimulus,canvas.Screen,0_5_12_1,2022-07-15T14:15:21.181Z,,,,,,6,2574.0740000953665,response,,0.485,0.515,,,https://raw.githubusercontent.com/carero2/loss-perception/main/png/0.485blue1yellowb%3D1w%3D100v%3D3.png,https://raw.githubusercontent.com/carero2/loss-perception/main/png/0.515blue1yellowb%3D1w%3D100v%3D3.png,,,,,,,,,true,f,keypress(f),0.515,0.485,true,133355.10000002384,133351.40000009537,130759.793,130762.10000002384,130777.326,133409.772,,,
choice,canvas.Screen,0_5_12_2,2022-07-15T14:15:23.221Z,,,,0.485,,6,1999.5709999999963,timeout,,,0.515,,0.515,,,-3,,,,,,,12,,,,,0.485,true,135395,135392.867,133359.579,133362.60000002384,133409.772,135409.343,,112,
timeout,canvas.Screen,0_5_12_3,2022-07-15T14:15:23.227Z,,,,,,6,NaN,skipped,,,0.515,,,,,,,,,,,,,,,,,0.485,true,135400.70000004768,135392.867,,135400,,135409.343,,,
ITI,canvas.Screen,0_5_12_4,2022-07-15T14:15:23.720Z,,,,,,6,499.887000000017,timeout,,,0.515,,,,,,,,,,,,,,,,,0.485,true,135894.30000007153,135892.873,135392.867,135401.10000002384,135409.343,135909.23,,,
trial,flow.Sequence,0_5_12,2022-07-15T14:15:23.721Z,,,,,,6,5616.702999999994,completion,,,0.515,,,,,,,,,,,,,,,,,0.485,true,135895,135892.873,130259.705,130262.5,130276.17,135909.23,,,
fixation,canvas.Screen,0_5_13_0,2022-07-15T14:15:24.221Z,,,,,,9,501.3889999999956,timeout,,,0.485,,,,,,,,,,,,,,,,,0.53,true,136394.70000004768,136392.582,135892.873,135895.5,135909.23,136410.619,,,
stimulus,canvas.Screen,0_5_13_1,2022-07-15T14:15:25.916Z,,,,,,9,1677.0810000476777,response,,0.53,0.485,,,https://raw.githubusercontent.com/carero2/loss-perception/main/png/0.53blue1yellowb%3D1w%3D100v%3D93.png,https://raw.githubusercontent.com/carero2/loss-perception/main/png/0.485blue1yellowb%3D1w%3D100v%3D93.png,,,,,,,,,true,f,keypress(f),0.485,0.53,true,138090.20000004768,138087.70000004768,136392.582,136395.20000004768,136410.619,138109.171,,,
choice,canvas.Screen,0_5_13_2,2022-07-15T14:15:27.920Z,,,,0.53,,9,2000.054999999993,timeout,,,0.485,,0.485,,,6,,,,,,,18,,,,,0.53,true,140094.60000002384,140092.648,138092.704,138104,138109.171,140109.226,,118,
timeout,canvas.Screen,0_5_13_3,2022-07-15T14:15:27.924Z,,,,,,9,NaN,skipped,,,0.485,,,,,,,,,,,,,,,,,0.53,true,140098.5,140092.648,,140097.80000007153,,140109.226,,,
ITI,canvas.Screen,0_5_13_4,2022-07-15T14:15:28.420Z,,,,,,9,499.78900000001886,timeout,,,0.485,,,,,,,,,,,,,,,,,0.53,true,140593.80000007153,140592.526,140092.648,140098.80000007153,140109.226,140609.015,,,
trial,flow.Sequence,0_5_13,2022-07-15T14:15:28.420Z,,,,,,9,4683.296000000002,completion,,,0.485,,,,,,,,,,,,,,,,,0.53,true,140594.5,140592.526,135892.873,135895.30000007153,135909.23,140609.015,,,
fixation,canvas.Screen,0_5_14_0,2022-07-15T14:15:28.920Z,,,,,,6,499.93699999997625,timeout,,,0.545,,,,,,,,,,,,,,,,,0.515,false,141093.80000007153,141092.524,140592.526,140595,140609.015,141108.952,,,
stimulus,canvas.Screen,0_5_14_1,2022-07-15T14:15:30.810Z,,,,,,6,1870.8480000715354,response,,0.545,0.545,,,https://raw.githubusercontent.com/carero2/loss-perception/main/png/0.545blue1yellowb%3D1w%3D100v%3D42.png,https://raw.githubusercontent.com/carero2/loss-perception/main/png/0.515blue1yellowb%3D1w%3D100v%3D42.png,,,,,,,,,true,j,keypress(j),0.515,0.515,false,142983.60000002384,142979.80000007153,141092.524,141094.5,141108.952,143025.499,,,
choice,canvas.Screen,0_5_14_2,2022-07-15T14:15:32.837Z,,,,0.515,,6,1999.9709999999905,timeout,,,0.545,,0.545,,,3,,,,,,,21,,,,,0.515,false,145011.10000002384,145009.058,143008.902,142991.70000004768,143025.499,145025.47,,121,
timeout,canvas.Screen,0_5_14_3,2022-07-15T14:15:32.841Z,,,,,,6,NaN,skipped,,,0.545,,,,,,,,,,,,,,,,,0.515,false,145015.60000002384,145009.058,,145015.10000002384,,145025.47,,,
ITI,canvas.Screen,0_5_14_4,2022-07-15T14:15:33.336Z,,,,,,6,499.88099999999395,timeout,,,0.545,,,,,,,,,,,,,,,,,0.515,false,145510.5,145508.991,145009.058,145016,145025.47,145525.351,,,
trial,flow.Sequence,0_5_14,2022-07-15T14:15:33.337Z,,,,,,6,4899.975999999995,completion,,,0.545,,,,,,,,,,,,,,,,,0.515,false,145511.30000007153,145508.991,140592.526,140594.90000009537,140609.015,145525.351,,,
fixation,canvas.Screen,0_5_15_0,2022-07-15T14:15:33.836Z,,,,,,6,500.0920000000042,timeout,,,0.485,,,,,,,,,,,,,,,,,0.455,false,146010.20000004768,146008.862,145508.991,145511.70000004768,145525.351,146025.443,,,
stimulus,canvas.Screen,0_5_15_1,2022-07-15T14:15:36.836Z,,,,,,6,2999.744000000006,timeout,,0.485,0.485,,,https://raw.githubusercontent.com/carero2/loss-perception/main/png/0.485blue1yellowb%3D1w%3D100v%3D63.png,https://raw.githubusercontent.com/carero2/loss-perception/main/png/0.455blue1yellowb%3D1w%3D100v%3D63.png,,,,,,,,,,,,0.455,0.455,false,149010.60000002384,149008.834,146008.862,146010.5,146025.443,149025.187,,,
choice,canvas.Screen,0_5_15_2,2022-07-15T14:15:36.852Z,,,,0,,6,NaN,skipped,,,0.485,,0,,,0,,,,,,,21,false,timeout,,,0.455,false,149026.5,149008.834,,149025.70000004768,,149025.187,,121,
timeout,canvas.Screen,0_5_15_3,2022-07-15T14:15:38.837Z,,,,,,6,1999.8640000000014,timeout,,,0.485,,,,,,,,,,,,,,,,,0.455,false,151010.60000002384,151008.813,149008.834,149031.90000009537,149025.187,151025.051,,,
ITI,canvas.Screen,0_5_15_4,2022-07-15T14:15:39.335Z,,,,,,6,500.054999999993,timeout,,,0.485,,,,,,,,,,,,,,,,,0.455,false,151509.70000004768,151508.373,151008.813,151011.10000002384,151025.051,151525.106,,,
trial,flow.Sequence,0_5_15,2022-07-15T14:15:39.337Z,,,,,,6,5983.021999999997,completion,,,0.485,,,,,,,,,,,,,,,,,0.455,false,151511.40000009537,151508.373,145508.991,145511.60000002384,145525.351,151525.106,,,
fixation,canvas.Screen,0_5_16_0,2022-07-15T14:15:39.836Z,,,,,,18,499.9780000000028,timeout,,,0.545,,,,,,,,,,,,,,,,,0.455,true,152009.70000004768,152008.34,151508.373,151512,151525.106,152025.084,,,
stimulus,canvas.Screen,0_5_16_1,2022-07-15T14:15:41.307Z,,,,,,18,1446.4159999999974,response,,0.455,0.545,,,https://raw.githubusercontent.com/carero2/loss-perception/main/png/0.455blue1yellowb%3D1w%3D100v%3D28.png,https://raw.githubusercontent.com/carero2/loss-perception/main/png/0.545blue1yellowb%3D1w%3D100v%3D28.png,,,,,,,,,true,f,keypress(f),0.545,0.455,true,153481,153471.5,152008.34,152010.10000002384,152025.084,153513.967,,,
choice,canvas.Screen,0_5_16_2,2022-07-15T14:15:43.320Z,,,,0.455,,18,1994.258999999991,timeout,,,0.545,,0.545,,,-9,,,,,,,12,,,,,0.455,true,155493.70000004768,155491.786,153475.178,153490.10000002384,153513.967,155508.226,,112,
timeout,canvas.Screen,0_5_16_3,2022-07-15T14:15:43.323Z,,,,,,18,NaN,skipped,,,0.545,,,,,,,,,,,,,,,,,0.455,true,155497.40000009537,155491.786,,155496.80000007153,,155508.226,,,
ITI,canvas.Screen,0_5_16_4,2022-07-15T14:15:43.819Z,,,,,,18,500.1130000000121,timeout,,,0.545,,,,,,,,,,,,,,,,,0.455,true,155993.20000004768,155991.673,155491.786,155497.80000007153,155508.226,156008.339,,,
trial,flow.Sequence,0_5_16,2022-07-15T14:15:43.820Z,,,,,,18,4466.56700000001,completion,,,0.545,,,,,,,,,,,,,,,,,0.455,true,155994,155991.673,151508.373,151511.70000004768,151525.106,156008.339,,,
fixation,canvas.Screen,0_5_17_0,2022-07-15T14:15:44.319Z,,,,,,12,499.70999999999185,timeout,,,0.53,,,,,,,,,,,,,,,,,0.47,false,156492.70000004768,156491.454,155991.673,155994.40000009537,156008.339,156508.049,,,
stimulus,canvas.Screen,0_5_17_1,2022-07-15T14:15:46.288Z,,,,,,12,1951.2510000715265,response,,0.53,0.53,,,https://raw.githubusercontent.com/carero2/loss-perception/main/png/0.53blue1yellowb%3D1w%3D100v%3D5.png,https://raw.githubusercontent.com/carero2/loss-perception/main/png/0.47blue1yellowb%3D1w%3D100v%3D5.png,,,,,,,,,true,f,keypress(f),0.47,0.47,false,158462.60000002384,158459.30000007153,156491.454,156493.10000002384,156508.049,158491.367,,,
choice,canvas.Screen,0_5_17_2,2022-07-15T14:15:48.303Z,,,,0.53,,12,1999.948000000004,timeout,,,0.53,,0.47,,,6,,,,,,,18,,,,,0.47,false,160476.80000007153,160474.865,158474.861,158477,158491.367,160491.315,,118,
timeout,canvas.Screen,0_5_17_3,2022-07-15T14:15:48.307Z,,,,,,12,NaN,skipped,,,0.53,,,,,,,,,,,,,,,,,0.47,false,160481.30000007153,160474.865,,160480.60000002384,,160491.315,,,
ITI,canvas.Screen,0_5_17_4,2022-07-15T14:15:48.803Z,,,,,,12,500.20900000000256,timeout,,,0.53,,,,,,,,,,,,,,,,,0.47,false,160976.70000004768,160974.861,160474.865,160481.70000004768,160491.315,160991.524,,,
trial,flow.Sequence,0_5_17,2022-07-15T14:15:48.803Z,,,,,,12,4966.521999999997,completion,,,0.53,,,,,,,,,,,,,,,,,0.47,false,160977.5,160974.861,155991.673,155994.30000007153,156008.339,160991.524,,,
fixation,canvas.Screen,0_5_18_0,2022-07-15T14:15:49.303Z,,,,,,12,499.6049999999814,timeout,,,0.53,,,,,,,,,,,,,,,,,0.47,true,161476.70000004768,161474.834,160974.861,160978.10000002384,160991.524,161491.129,,,
stimulus,canvas.Screen,0_5_18_1,2022-07-15T14:15:50.773Z,,,,,,12,1450.2710000953812,response,,0.47,0.53,,,https://raw.githubusercontent.com/carero2/loss-perception/main/png/0.47blue1yellowb%3D1w%3D100v%3D45.png,https://raw.githubusercontent.com/carero2/loss-perception/main/png/0.53blue1yellowb%3D1w%3D100v%3D45.png,,,,,,,,,true,j,keypress(j),0.53,0.47,true,162947.30000007153,162941.40000009537,161474.834,161477.20000004768,161491.129,162974.423,,,
choice,canvas.Screen,0_5_18_2,2022-07-15T14:15:52.786Z,,,,0.53,,12,1999.9729999999981,timeout,,,0.53,,0.47,,,6,,,,,,,24,,,,,0.47,true,164959.90000009537,164957.937,162958.003,162957.5,162974.423,164974.396,,124,
timeout,canvas.Screen,0_5_18_3,2022-07-15T14:15:52.790Z,,,,,,12,NaN,skipped,,,0.53,,,,,,,,,,,,,,,,,0.47,true,164964.40000009537,164957.937,,164963.80000007153,,164974.396,,,
ITI,canvas.Screen,0_5_18_4,2022-07-15T14:15:53.285Z,,,,,,12,499.8869999999879,timeout,,,0.53,,,,,,,,,,,,,,,,,0.47,true,165459.10000002384,165457.662,164957.937,164964.90000009537,164974.396,165474.283,,,
trial,flow.Sequence,0_5_18,2022-07-15T14:15:53.286Z,,,,,,12,4466.138000000006,completion,,,0.53,,,,,,,,,,,,,,,,,0.47,true,165459.90000009537,165457.662,160974.861,160977.90000009537,160991.524,165474.283,,,
fixation,canvas.Screen,0_5_19_0,2022-07-15T14:15:53.785Z,,,,,,6,499.9770000000135,timeout,,,0.515,,,,,,,,,,,,,,,,,0.485,false,165959.20000004768,165957.806,165457.662,165460.40000009537,165474.283,165974.26,,,
stimulus,canvas.Screen,0_5_19_1,2022-07-15T14:15:55.803Z,,,,,,6,1997.6400000953581,response,,0.515,0.515,,,https://raw.githubusercontent.com/carero2/loss-perception/main/png/0.515blue1yellowb%3D1w%3D100v%3D83.png,https://raw.githubusercontent.com/carero2/loss-perception/main/png/0.485blue1yellowb%3D1w%3D100v%3D83.png,,,,,,,,,true,f,keypress(f),0.485,0.485,false,167977.10000002384,167971.90000009537,165957.806,165959.60000002384,165974.26,168040.989,,,
choice,canvas.Screen,0_5_19_2,2022-07-15T14:15:57.852Z,,,,0.515,,6,1999.7550000000047,timeout,,,0.515,,0.485,,,3,,,,,,,27,,,,,0.485,false,170026,170024.1,168007.58,167989.90000009537,168040.989,170040.744,,127,
timeout,canvas.Screen,0_5_19_3,2022-07-15T14:15:57.857Z,,,,,,6,NaN,skipped,,,0.515,,,,,,,,,,,,,,,,,0.485,false,170031.60000002384,170024.1,,170030.80000007153,,170040.744,,,
ITI,canvas.Screen,0_5_19_4,2022-07-15T14:15:58.352Z,,,,,,6,500.01900000000023,timeout,,,0.515,,,,,,,,,,,,,,,,,0.485,false,170526.20000004768,170524.381,170024.1,170032,170040.744,170540.763,,,
trial,flow.Sequence,0_5_19,2022-07-15T14:15:58.353Z,,,,,,6,5050.097999999998,completion,,,0.515,,,,,,,,,,,,,,,,,0.485,false,170527,170524.381,165457.662,165460.20000004768,165474.283,170540.763,,,
fixation,canvas.Screen,0_5_20_0,2022-07-15T14:15:58.852Z,,,,,,9,499.9079999999958,timeout,,,0.485,,,,,,,,,,,,,,,,,0.53,true,171026.20000004768,171024.289,170524.381,170527.60000002384,170540.763,171040.671,,,
stimulus,canvas.Screen,0_5_20_1,2022-07-15T14:16:00.344Z,,,,,,9,1472.9290000238398,response,,0.53,0.485,,,https://raw.githubusercontent.com/carero2/loss-perception/main/png/0.53blue1yellowb%3D1w%3D100v%3D49.png,https://raw.githubusercontent.com/carero2/loss-perception/main/png/0.485blue1yellowb%3D1w%3D100v%3D49.png,,,,,,,,,true,f,keypress(f),0.485,0.53,true,172518.40000009537,172513.60000002384,171024.289,171026.70000004768,171040.671,172540.685,,,
choice,canvas.Screen,0_5_20_2,2022-07-15T14:16:02.352Z,,,,0.53,,9,1999.8209999999963,timeout,,,0.485,,0.485,,,6,,,,,,,33,,,,,0.53,true,174526.10000002384,174524.132,172524.122,172531.90000009537,172540.685,174540.506,,133,
timeout,canvas.Screen,0_5_20_3,2022-07-15T14:16:02.357Z,,,,,,9,NaN,skipped,,,0.485,,,,,,,,,,,,,,,,,0.53,true,174531,174524.132,,174530.30000007153,,174540.506,,,
ITI,canvas.Screen,0_5_20_4,2022-07-15T14:16:02.851Z,,,,,,9,499.9290000000037,timeout,,,0.485,,,,,,,,,,,,,,,,,0.53,true,175025.60000002384,175023.991,174524.132,174531.30000007153,174540.506,175040.435,,,
trial,flow.Sequence,0_5_20,2022-07-15T14:16:02.852Z,,,,,,9,4483.228000000003,completion,,,0.485,,,,,,,,,,,,,,,,,0.53,true,175026.30000007153,175023.991,170524.381,170527.40000009537,170540.763,175040.435,,,
fixation,canvas.Screen,0_5_21_0,2022-07-15T14:16:03.351Z,,,,,,6,500.0139999999956,timeout,,,0.545,,,,,,,,,,,,,,,,,0.515,true,175525.60000002384,175523.944,175023.991,175026.80000007153,175040.435,175540.449,,,
stimulus,canvas.Screen,0_5_21_1,2022-07-15T14:16:05.290Z,,,,,,6,1918.8510000715323,response,,0.515,0.545,,,https://raw.githubusercontent.com/carero2/loss-perception/main/png/0.515blue1yellowb%3D1w%3D100v%3D45.png,https://raw.githubusercontent.com/carero2/loss-perception/main/png/0.545blue1yellowb%3D1w%3D100v%3D45.png,,,,,,,,,true,f,keypress(f),0.545,0.515,true,177463.70000004768,177459.30000007153,175523.944,175526.20000004768,175540.449,177491.145,,,
choice,canvas.Screen,0_5_21_2,2022-07-15T14:16:07.302Z,,,,0.515,,6,1999.149000000005,timeout,,,0.545,,0.545,,,3,,,,,,,36,,,,,0.515,true,179475.70000004768,179473.866,177456.986,177472.5,177491.145,179490.294,,136,
timeout,canvas.Screen,0_5_21_3,2022-07-15T14:16:07.306Z,,,,,,6,NaN,skipped,,,0.545,,,,,,,,,,,,,,,,,0.515,true,179480.30000007153,179473.866,,179479.60000002384,,179490.294,,,
ITI,canvas.Screen,0_5_21_4,2022-07-15T14:16:07.802Z,,,,,,6,499.91500000000815,timeout,,,0.545,,,,,,,,,,,,,,,,,0.515,true,179976.5,179973.988,179473.866,179480.60000002384,179490.294,179990.209,,,
trial,flow.Sequence,0_5_21,2022-07-15T14:16:07.803Z,,,,,,6,4933.553000000014,completion,,,0.545,,,,,,,,,,,,,,,,,0.515,true,179977.20000004768,179973.988,175023.991,175026.70000004768,175040.435,179990.209,,,
fixation,canvas.Screen,0_5_22_0,2022-07-15T14:16:08.301Z,,,,,,18,499.9780000000028,timeout,,,0.545,,,,,,,,,,,,,,,,,0.455,true,180475,180473.695,179973.988,179977.70000004768,179990.209,180490.187,,,
stimulus,canvas.Screen,0_5_22_1,2022-07-15T14:16:10.279Z,,,,,,18,1959.9130000238365,response,,0.455,0.545,,,https://raw.githubusercontent.com/carero2/loss-perception/main/png/0.455blue1yellowb%3D1w%3D100v%3D1.png,https://raw.githubusercontent.com/carero2/loss-perception/main/png/0.545blue1yellowb%3D1w%3D100v%3D1.png,,,,,,,,,true,j,keypress(j),0.545,0.455,true,182453.10000002384,182450.10000002384,180473.695,180475.5,180490.187,182523.336,,,
choice,canvas.Screen,0_5_22_2,2022-07-15T14:16:12.335Z,,,,0.545,,18,2000.0619999999763,timeout,,,0.545,,0.455,,,9,,,,,,,45,,,,,0.455,true,184508.90000009537,184506.929,182456.931,182463.30000007153,182523.336,184523.398,,145,
timeout,canvas.Screen,0_5_22_3,2022-07-15T14:16:12.340Z,,,,,,18,NaN,skipped,,,0.545,,,,,,,,,,,,,,,,,0.455,true,184514.40000009537,184506.929,,184513.70000004768,,184523.398,,,
ITI,canvas.Screen,0_5_22_4,2022-07-15T14:16:12.834Z,,,,,,18,500.04200000001583,timeout,,,0.545,,,,,,,,,,,,,,,,,0.455,true,185008.30000007153,185006.78,184506.929,184514.80000007153,184523.398,185023.44,,,
trial,flow.Sequence,0_5_22,2022-07-15T14:16:12.835Z,,,,,,18,5016.570999999996,completion,,,0.545,,,,,,,,,,,,,,,,,0.455,true,185009,185006.78,179973.988,179977.5,179990.209,185023.44,,,
fixation,canvas.Screen,0_5_23_0,2022-07-15T14:16:13.334Z,,,,,,6,499.76800000001094,timeout,,,0.485,,,,,,,,,,,,,,,,,0.455,true,185508.60000002384,185506.875,185006.78,185009.5,185023.44,185523.208,,,
stimulus,canvas.Screen,0_5_23_1,2022-07-15T14:16:15.724Z,,,,,,6,2370.5920000715123,response,,0.455,0.485,,,https://raw.githubusercontent.com/carero2/loss-perception/main/png/0.455blue1yellowb%3D1w%3D100v%3D59.png,https://raw.githubusercontent.com/carero2/loss-perception/main/png/0.485blue1yellowb%3D1w%3D100v%3D59.png,,,,,,,,,true,f,keypress(f),0.485,0.455,true,187898.40000009537,187893.80000007153,185506.875,185509,185523.208,187923.157,,,
choice,canvas.Screen,0_5_23_2,2022-07-15T14:16:17.735Z,,,,0.455,,6,1999.8519999999844,timeout,,,0.485,,0.485,,,-9,,,,,,,36,,,,,0.455,true,189908.70000004768,189906.622,187906.801,187914,187923.157,189923.009,,136,
timeout,canvas.Screen,0_5_23_3,2022-07-15T14:16:17.739Z,,,,,,6,NaN,skipped,,,0.485,,,,,,,,,,,,,,,,,0.455,true,189912.80000007153,189906.622,,189912.20000004768,,189923.009,,,
ITI,canvas.Screen,0_5_23_4,2022-07-15T14:16:18.234Z,,,,,,6,499.9180000000051,timeout,,,0.485,,,,,,,,,,,,,,,,,0.455,true,190408.30000007153,190406.427,189906.622,189913.10000002384,189923.009,190422.927,,,
trial,flow.Sequence,0_5_23,2022-07-15T14:16:18.235Z,,,,,,6,5382.986999999994,completion,,,0.485,,,,,,,,,,,,,,,,,0.455,true,190409,190406.427,185006.78,185009.40000009537,185023.44,190422.927,,,
pratice,flow.Loop,0_5,2022-07-15T14:16:18.236Z,,,,,,,117593.79299999999,completion,,,,,,,,,,,,,,,,,,,,,,190409.70000004768,190406.427,72796.242,72816.80000007153,72812.634,190422.927,,,
show amount,html.Screen,0_6,2022-07-15T14:16:26.962Z,,,,,,,8708.673000023846,response,,,,,,,,,,,,,,,,,Continue,click #Continue,,,,199136.10000002384,199131.60000002384,190406.427,190412.80000007153,190422.927,199139.095,,,
first block,canvas.Screen,0_7,2022-07-15T14:16:34.872Z,,,,,,,7902.505000023841,response,,,,,,,,,,,,,,,,,space,keypress(Space),,,,207045.90000009537,207041.60000002384,199122.64,199136.30000007153,199139.095,207057.131,,,
fixation,canvas.Screen,0_8_0_0,2022-07-15T14:16:35.367Z,,,,,,2,815.0350000000035,timeout,,,0.515,,,,,,,,,,,,,,,,,0.505,true,207540.80000007153,207539.034,207038.829,207046.80000007153,207057.131,207872.166,,,
stimulus,canvas.Screen,0_8_0_1,2022-07-15T14:16:37.315Z,,,,,,2,1613.6340000715281,response,,0.505,0.515,,,https://raw.githubusercontent.com/carero2/loss-perception/main/png/0.505blue1yellowb%3D1w%3D100v%3D41.png,https://raw.githubusercontent.com/carero2/loss-perception/main/png/0.515blue1yellowb%3D1w%3D100v%3D41.png,,,,,,,,,true,j,keypress(j),0.515,0.505,true,209488.80000007153,209485.80000007153,207539.034,207949,207872.166,209588.789,,,
choice,canvas.Screen,0_8_0_2,2022-07-15T14:16:38.400Z,,,,0.515,,2,999.7570000000123,timeout,,,0.515,,0.505,,,3,3,,,,,,,,,,,0.505,true,210574.10000002384,210572.175,209572.069,209582.70000004768,209588.789,210588.546,103,,
ITI,canvas.Screen,0_8_0_3,2022-07-15T14:16:38.900Z,,,2202,,,2,499.9739999999874,timeout,,,0.515,,,,,,,,,,,,,,,,,0.505,true,211073.80000007153,211071.92,210572.175,210575.80000007153,210588.546,211088.52,,,
trial,flow.Sequence,0_8_0,2022-07-15T14:16:38.901Z,,,,,,2,4014.789000000019,completion,,,0.515,,,,,,,,,,,,,,,,,0.505,true,211074.70000004768,211071.92,207038.829,207046.60000002384,207057.131,211088.52,,,
fixation,canvas.Screen,0_8_1_0,2022-07-15T14:16:39.400Z,,,,,,2,799.9170000000158,timeout,,,0.495,,,,,,,,,,,,,,,,,0.485,true,211574.20000004768,211572.111,211071.92,211075.30000007153,211088.52,211888.437,,,
stimulus,canvas.Screen,0_8_1_1,2022-07-15T14:16:42.314Z,,,,,,2,2596.86300007152,response,,0.485,0.495,,,https://raw.githubusercontent.com/carero2/loss-perception/main/png/0.485blue1yellowb%3D1w%3D100v%3D58.png,https://raw.githubusercontent.com/carero2/loss-perception/main/png/0.495blue1yellowb%3D1w%3D100v%3D58.png,,,,,,,,,true,j,keypress(j),0.495,0.485,true,214487.70000004768,214485.30000007153,211572.111,211928.90000009537,211888.437,214588.238,,,
choice,canvas.Screen,0_8_1_2,2022-07-15T14:16:43.400Z,,,,0.495,,2,1000.3369999999995,timeout,,,0.495,,0.485,,,-1,2,,,,,,,,,,,0.485,true,215573.90000009537,215571.928,214571.861,214576.90000009537,214588.238,215588.575,102,,
ITI,canvas.Screen,0_8_1_3,2022-07-15T14:16:43.899Z,,,2208,,,2,499.6939999999886,timeout,,,0.495,,,,,,,,,,,,,,,,,0.485,true,216073.30000007153,216071.647,215571.928,215574.60000002384,215588.575,216088.269,,,
trial,flow.Sequence,0_8_1,2022-07-15T14:16:43.900Z,,,,,,2,4983.127000000008,completion,,,0.495,,,,,,,,,,,,,,,,,0.485,true,216074.20000004768,216071.647,211071.92,211075.10000002384,211088.52,216088.269,,,
fixation,canvas.Screen,0_8_2_0,2022-07-15T14:16:44.399Z,,,,,,4,766.7619999999879,timeout,,,0.53,,,,,,,,,,,,,,,,,0.51,true,216573.10000002384,216571.753,216071.647,216074.70000004768,216088.269,216855.031,,,
stimulus,canvas.Screen,0_8_2_1,2022-07-15T14:16:46.815Z,,,,,,4,2130.469000000012,response,,0.51,0.53,,,https://raw.githubusercontent.com/carero2/loss-perception/main/png/0.51blue1yellowb%3D1w%3D100v%3D100.png,https://raw.githubusercontent.com/carero2/loss-perception/main/png/0.53blue1yellowb%3D1w%3D100v%3D100.png,,,,,,,,,true,f,keypress(f),0.53,0.51,true,218989.20000004768,218985.5,216571.753,216931.70000004768,216855.031,219088.072,,,
choice,canvas.Screen,0_8_2_2,2022-07-15T14:16:47.899Z,,,,0.51,,4,999.9790000000212,timeout,,,0.53,,0.53,,,2,4,,,,,,,,,,,0.51,true,220073.10000002384,220071.603,219071.606,219075.40000009537,219088.072,220088.051,104,,
ITI,canvas.Screen,0_8_2_3,2022-07-15T14:16:48.399Z,,,2438,,,4,500.0650000000023,timeout,,,0.53,,,,,,,,,,,,,,,,,0.51,true,220573,220571.531,220071.603,220073.70000004768,220088.051,220588.116,,,
trial,flow.Sequence,0_8_2,2022-07-15T14:16:48.400Z,,,,,,4,4483.261999999988,completion,,,0.53,,,,,,,,,,,,,,,,,0.51,true,220573.80000007153,220571.531,216071.647,216074.5,216088.269,220588.116,,,
fixation,canvas.Screen,0_8_3_0,2022-07-15T14:16:48.899Z,,,,,,4,799.7740000000049,timeout,,,0.49,,,,,,,,,,,,,,,,,0.47,true,221072.90000009537,221071.511,220571.531,220574.20000004768,220588.116,221387.89,,,
stimulus,canvas.Screen,0_8_3_1,2022-07-15T14:16:51.810Z,,,,,,4,2592.210000023828,response,,0.47,0.49,,,https://raw.githubusercontent.com/carero2/loss-perception/main/png/0.47blue1yellowb%3D1w%3D100v%3D62.png,https://raw.githubusercontent.com/carero2/loss-perception/main/png/0.49blue1yellowb%3D1w%3D100v%3D62.png,,,,,,,,,true,j,keypress(j),0.49,0.47,true,223984.10000002384,223980.10000002384,221071.511,221438.30000007153,221387.89,224104.454,,,
choice,canvas.Screen,0_8_3_2,2022-07-15T14:16:52.916Z,,,,0.49,,4,1000.0439999999944,timeout,,,0.49,,0.47,,,-2,2,,,,,,,,,,,0.47,true,225090,225088.086,224088.126,224100.20000004768,224104.454,225104.498,102,,
ITI,canvas.Screen,0_8_3_3,2022-07-15T14:16:53.416Z,,,2932,,,4,499.91400000001886,timeout,,,0.49,,,,,,,,,,,,,,,,,0.47,true,225589.70000004768,225588.057,225088.086,225090.80000007153,225104.498,225604.412,,,
trial,flow.Sequence,0_8_3,2022-07-15T14:16:53.416Z,,,,,,4,4999.940999999992,completion,,,0.49,,,,,,,,,,,,,,,,,0.47,true,225590.60000002384,225588.057,220571.531,220574,220588.116,225604.412,,,
fixation,canvas.Screen,0_8_4_0,2022-07-15T14:16:53.915Z,,,,,,6,650.0209999999788,timeout,,,0.545,,,,,,,,,,,,,,,,,0.515,false,226089.5,226087.904,225588.057,225591.20000004768,225604.412,226254.433,,,
stimulus,canvas.Screen,0_8_4_1,2022-07-15T14:16:55.913Z,,,,,,6,1824.56700000001,response,,0.545,0.545,,,https://raw.githubusercontent.com/carero2/loss-perception/main/png/0.545blue1yellowb%3D1w%3D100v%3D83.png,https://raw.githubusercontent.com/carero2/loss-perception/main/png/0.515blue1yellowb%3D1w%3D100v%3D83.png,,,,,,,,,true,j,keypress(j),0.515,0.515,false,228087.5,228079,226087.904,226300.10000002384,226254.433,228187.559,,,
choice,canvas.Screen,0_8_4_2,2022-07-15T14:16:56.999Z,,,,0.515,,6,999.9370000000054,timeout,,,0.545,,0.545,,,3,5,,,,,,,,,,,0.515,false,229172.70000004768,229171.063,228154.631,228166.5,228187.559,229187.496,105,,
ITI,canvas.Screen,0_8_4_3,2022-07-15T14:16:57.500Z,,,2967,,,6,500.08399999997346,timeout,,,0.545,,,,,,,,,,,,,,,,,0.515,false,229674.20000004768,229671.168,229171.063,229173.30000007153,229187.496,229687.58,,,
trial,flow.Sequence,0_8_4,2022-07-15T14:16:57.501Z,,,,,,6,4066.755999999994,completion,,,0.545,,,,,,,,,,,,,,,,,0.515,false,229675.20000004768,229671.168,225588.057,225590.90000009537,225604.412,229687.58,,,
fixation,canvas.Screen,0_8_5_0,2022-07-15T14:16:57.999Z,,,,,,2,800.0450000000128,timeout,,,0.505,,,,,,,,,,,,,,,,,0.495,true,230173.10000002384,230171.123,229671.168,229675.90000009537,229687.58,230487.625,,,
stimulus,canvas.Screen,0_8_5_1,2022-07-15T14:17:02.046Z,,,,,,2,3727.2750000953674,response,,0.495,0.505,,,https://raw.githubusercontent.com/carero2/loss-perception/main/png/0.495blue1yellowb%3D1w%3D100v%3D88.png,https://raw.githubusercontent.com/carero2/loss-perception/main/png/0.505blue1yellowb%3D1w%3D100v%3D88.png,,,,,,,,,true,f,keypress(f),0.505,0.495,true,234220,234214.90000009537,230171.123,230525.70000004768,230487.625,234337.218,,,
choice,canvas.Screen,0_8_5_2,2022-07-15T14:17:03.149Z,,,,0.495,,2,1000.4090000000142,timeout,,,0.505,,0.505,,,-1,4,,,,,,,,,,,0.495,true,235323,235320.846,234320.997,234329.70000004768,234337.218,235337.627,104,,
ITI,canvas.Screen,0_8_5_3,2022-07-15T14:17:03.648Z,,,2300,,,2,499.5889999999781,timeout,,,0.505,,,,,,,,,,,,,,,,,0.495,true,235822.40000009537,235820.703,235320.846,235323.70000004768,235337.627,235837.216,,,
trial,flow.Sequence,0_8_5,2022-07-15T14:17:03.649Z,,,,,,2,6133.123000000021,completion,,,0.505,,,,,,,,,,,,,,,,,0.495,true,235823.20000004768,235820.703,229671.168,229675.60000002384,229687.58,235837.216,,,
fixation,canvas.Screen,0_8_6_0,2022-07-15T14:17:04.148Z,,,,,,6,583.2700000000186,timeout,,,0.485,,,,,,,,,,,,,,,,,0.455,false,236321.90000009537,236320.504,235820.703,235823.80000007153,235837.216,236420.486,,,
stimulus,canvas.Screen,0_8_6_1,2022-07-15T14:17:06.804Z,,,,,,6,2546.814000071521,response,,0.485,0.485,,,https://raw.githubusercontent.com/carero2/loss-perception/main/png/0.485blue1yellowb%3D1w%3D100v%3D10.png,https://raw.githubusercontent.com/carero2/loss-perception/main/png/0.455blue1yellowb%3D1w%3D100v%3D10.png,,,,,,,,,true,j,keypress(j),0.455,0.455,false,238978.20000004768,238967.30000007153,236320.504,236474.40000009537,236420.486,239086.964,,,
choice,canvas.Screen,0_8_6_2,2022-07-15T14:17:07.898Z,,,,0.455,,6,1000.0559999999823,timeout,,,0.485,,0.485,,,-9,-5,,,,,,,,,,,0.455,false,240072.40000009537,240070.399,239053.877,239058.60000002384,239086.964,240087.02,95,,
ITI,canvas.Screen,0_8_6_3,2022-07-15T14:17:08.398Z,,,2562,,,6,499.95100000000093,timeout,,,0.485,,,,,,,,,,,,,,,,,0.455,false,240572.5,240570.62,240070.399,240073,240087.02,240586.971,,,
trial,flow.Sequence,0_8_6,2022-07-15T14:17:08.399Z,,,,,,6,4733.40400000001,completion,,,0.485,,,,,,,,,,,,,,,,,0.455,false,240573.60000002384,240570.62,235820.703,235823.60000002384,235837.216,240586.971,,,
fixation,canvas.Screen,0_8_7_0,2022-07-15T14:17:08.898Z,,,,,,6,733.4550000000163,timeout,,,0.515,,,,,,,,,,,,,,,,,0.485,true,241071.90000009537,241070.423,240570.62,240574.10000002384,240586.971,241320.426,,,
stimulus,canvas.Screen,0_8_7_1,2022-07-15T14:17:12.813Z,,,,,,6,3668.4740000953607,response,,0.485,0.515,,,https://raw.githubusercontent.com/carero2/loss-perception/main/png/0.485blue1yellowb%3D1w%3D100v%3D29.png,https://raw.githubusercontent.com/carero2/loss-perception/main/png/0.515blue1yellowb%3D1w%3D100v%3D29.png,,,,,,,,,true,f,keypress(f),0.515,0.485,true,244993.5,244988.90000009537,241070.423,241426.40000009537,241320.426,245103.419,,,
choice,canvas.Screen,0_8_7_2,2022-07-15T14:17:13.909Z,,,,0.485,,6,999.880999999994,timeout,,,0.515,,0.515,,,-3,-8,,,,,,,,,,,0.485,true,246088.80000007153,246086.955,245086.967,245090.70000004768,245103.419,246103.3,92,,
ITI,canvas.Screen,0_8_7_3,2022-07-15T14:17:14.409Z,,,2339,,,6,500.0450000000128,timeout,,,0.515,,,,,,,,,,,,,,,,,0.485,true,246589.70000004768,246586.675,246086.955,246089.40000009537,246103.3,246603.345,,,
trial,flow.Sequence,0_8_7,2022-07-15T14:17:14.410Z,,,,,,6,5999.703999999998,completion,,,0.515,,,,,,,,,,,,,,,,,0.485,true,246590.60000002384,246586.675,240570.62,240574,240586.971,246603.345,,,
fixation,canvas.Screen,0_8_8_0,2022-07-15T14:17:14.909Z,,,,,,4,766.5139999999956,timeout,,,0.51,,,,,,,,,,,,,,,,,0.49,false,247088.90000009537,247086.879,246586.675,246591.30000007153,246603.345,247369.859,,,
stimulus,canvas.Screen,0_8_8_1,2022-07-15T14:17:18.477Z,,,,,,4,3284.6410000000033,response,,0.51,0.51,,,https://raw.githubusercontent.com/carero2/loss-perception/main/png/0.51blue1yellowb%3D1w%3D100v%3D49.png,https://raw.githubusercontent.com/carero2/loss-perception/main/png/0.49blue1yellowb%3D1w%3D100v%3D49.png,,,,,,,,,true,j,keypress(j),0.49,0.49,false,250657.20000004768,250654.5,247086.879,247455.20000004768,247369.859,250769.778,,,
choice,canvas.Screen,0_8_8_2,2022-07-15T14:17:19.575Z,,,,0.49,,4,999.9830000000075,timeout,,,0.51,,0.51,,,-2,-10,,,,,,,,,,,0.49,false,251755.40000009537,251753.295,250736.621,250747.40000009537,250769.778,251769.761,90,,
ITI,canvas.Screen,0_8_8_3,2022-07-15T14:17:20.074Z,,,2734,,,4,499.8880000000063,timeout,,,0.51,,,,,,,,,,,,,,,,,0.49,false,252254.70000004768,252253.172,251753.295,251756.10000002384,251769.761,252269.649,,,
trial,flow.Sequence,0_8_8,2022-07-15T14:17:20.075Z,,,,,,4,5649.82699999999,completion,,,0.51,,,,,,,,,,,,,,,,,0.49,false,252255.70000004768,252253.172,246586.675,246591.10000002384,246603.345,252269.649,,,
fixation,canvas.Screen,0_8_9_0,2022-07-15T14:17:20.575Z,,,,,,6,866.5529999999853,timeout,,,0.485,,,,,,,,,,,,,,,,,0.455,true,252755,252753.329,252253.172,252256.20000004768,252269.649,253136.202,,,
stimulus,canvas.Screen,0_8_9_1,2022-07-15T14:17:23.366Z,,,,,,6,2407.198000095377,response,,0.455,0.485,,,https://raw.githubusercontent.com/carero2/loss-perception/main/png/0.455blue1yellowb%3D1w%3D100v%3D39.png,https://raw.githubusercontent.com/carero2/loss-perception/main/png/0.485blue1yellowb%3D1w%3D100v%3D39.png,,,,,,,,,true,j,keypress(j),0.485,0.455,true,255546.60000002384,255543.40000009537,252753.329,253172.10000002384,253136.202,255652.784,,,
choice,canvas.Screen,0_8_9_2,2022-07-15T14:17:24.458Z,,,,0.485,,6,1000.0039999999863,timeout,,,0.485,,0.455,,,-3,-13,,,,,,,,,,,0.455,true,256638.10000002384,256636.22,255619.647,255634.5,255652.784,256652.788,87,,
ITI,canvas.Screen,0_8_9_3,2022-07-15T14:17:24.958Z,,,2199,,,6,499.9429999999993,timeout,,,0.485,,,,,,,,,,,,,,,,,0.455,true,257138,257136.304,256636.22,256638.80000007153,256652.788,257152.731,,,
trial,flow.Sequence,0_8_9,2022-07-15T14:17:24.959Z,,,,,,6,4866.654999999999,completion,,,0.485,,,,,,,,,,,,,,,,,0.455,true,257139.10000002384,257136.304,252253.172,252256.10000002384,252269.649,257152.731,,,
fixation,canvas.Screen,0_8_10_0,2022-07-15T14:17:25.457Z,,,,,,4,783.2170000000042,timeout,,,0.49,,,,,,,,,,,,,,,,,0.47,false,257637.70000004768,257636.2,257136.304,257139.70000004768,257152.731,257935.948,,,
stimulus,canvas.Screen,0_8_10_1,2022-07-15T14:17:29.051Z,,,,,,4,3283.4520000953635,response,,0.49,0.49,,,https://raw.githubusercontent.com/carero2/loss-perception/main/png/0.49blue1yellowb%3D1w%3D100v%3D92.png,https://raw.githubusercontent.com/carero2/loss-perception/main/png/0.47blue1yellowb%3D1w%3D100v%3D92.png,,,,,,,,,true,j,keypress(j),0.47,0.47,false,261230.90000009537,261219.40000009537,257636.2,257981.40000009537,257935.948,261335.879,,,
choice,canvas.Screen,0_8_10_2,2022-07-15T14:17:30.141Z,,,,0.47,,4,999.9840000000258,timeout,,,0.49,,0.49,,,-6,-19,,,,,,,,,,,0.47,false,262321.10000002384,262319.177,261302.509,261311.5,261335.879,262335.863,81,,
ITI,canvas.Screen,0_8_10_3,2022-07-15T14:17:30.642Z,,,2147,,,4,499.8839999999618,timeout,,,0.49,,,,,,,,,,,,,,,,,0.47,false,262822.5,262819.368,262319.177,262321.90000009537,262335.863,262835.747,,,
trial,flow.Sequence,0_8_10,2022-07-15T14:17:30.643Z,,,,,,4,5666.637000000017,completion,,,0.49,,,,,,,,,,,,,,,,,0.47,false,262823.5,262819.368,257136.304,257139.5,257152.731,262835.747,,,
fixation,canvas.Screen,0_8_11_0,2022-07-15T14:17:31.141Z,,,,,,6,833.2160000000149,timeout,,,0.545,,,,,,,,,,,,,,,,,0.515,false,263321.2000000477,263319.341,262819.368,262824.10000002384,262835.747,263668.963,,,
stimulus,canvas.Screen,0_8_11_1,2022-07-15T14:17:34.863Z,,,,,,6,3371.537000000011,response,,0.545,0.545,,,https://raw.githubusercontent.com/carero2/loss-perception/main/png/0.545blue1yellowb%3D1w%3D100v%3D9.png,https://raw.githubusercontent.com/carero2/loss-perception/main/png/0.515blue1yellowb%3D1w%3D100v%3D9.png,,,,,,,,,true,j,keypress(j),0.515,0.515,false,267043.40000009537,267040.5,263319.341,263715.10000002384,263668.963,267135.653,,,
choice,canvas.Screen,0_8_11_2,2022-07-15T14:17:35.941Z,,,,0.515,,6,999.8790000000154,timeout,,,0.545,,0.545,,,3,-16,,,,,,,,,,,0.515,false,268121.2000000477,268119.114,267119.045,267128.7000000477,267135.653,268135.532,84,,
ITI,canvas.Screen,0_8_11_3,2022-07-15T14:17:36.440Z,,,2780,,,6,499.8960000000079,timeout,,,0.545,,,,,,,,,,,,,,,,,0.515,false,268620.7000000477,268618.814,268119.114,268121.90000009537,268135.532,268635.428,,,
trial,flow.Sequence,0_8_11,2022-07-15T14:17:36.441Z,,,,,,6,5783.067000000039,completion,,,0.545,,,,,,,,,,,,,,,,,0.515,false,268621.7000000477,268618.814,262819.368,262823.90000009537,262835.747,268635.428,,,
fixation,canvas.Screen,0_8_12_0,2022-07-15T14:17:36.941Z,,,,,,4,783.6359999999986,timeout,,,0.51,,,,,,,,,,,,,,,,,0.49,true,269120.90000009537,269119.117,268618.814,268622.2000000477,268635.428,269419.064,,,
stimulus,canvas.Screen,0_8_12_1,2022-07-15T14:17:40.508Z,,,,,,4,3261.2360000715125,response,,0.49,0.51,,,https://raw.githubusercontent.com/carero2/loss-perception/main/png/0.49blue1yellowb%3D1w%3D100v%3D99.png,https://raw.githubusercontent.com/carero2/loss-perception/main/png/0.51blue1yellowb%3D1w%3D100v%3D99.png,,,,,,,,,true,f,keypress(f),0.51,0.49,true,272688.7000000477,272680.3000000715,269119.117,269517.90000009537,269419.064,272801.838,,,
choice,canvas.Screen,0_8_12_2,2022-07-15T14:17:41.607Z,,,,0.49,,4,1000.005999999994,timeout,,,0.51,,0.51,,,-2,-18,,,,,,,,,,,0.49,true,273787.5,273785.459,272752.038,272766.5,272801.838,273801.844,82,,
ITI,canvas.Screen,0_8_12_3,2022-07-15T14:17:42.107Z,,,2839,,,4,500.05300000001444,timeout,,,0.51,,,,,,,,,,,,,,,,,0.49,true,274287.3000000715,274285.415,273785.459,273788.3000000715,273801.844,274301.897,,,
trial,flow.Sequence,0_8_12,2022-07-15T14:17:42.108Z,,,,,,4,5649.986999999965,completion,,,0.51,,,,,,,,,,,,,,,,,0.49,true,274288.40000009537,274285.415,268618.814,268622.10000002384,268635.428,274301.897,,,
fixation,canvas.Screen,0_8_13_0,2022-07-15T14:17:42.606Z,,,,,,2,783.1209999999846,timeout,,,0.515,,,,,,,,,,,,,,,,,0.505,false,274786.8000000715,274785.281,274285.415,274289.10000002384,274301.897,275085.018,,,
stimulus,canvas.Screen,0_8_13_1,2022-07-15T14:17:46.208Z,,,,,,2,3293.58200002386,response,,0.515,0.515,,,https://raw.githubusercontent.com/carero2/loss-perception/main/png/0.515blue1yellowb%3D1w%3D100v%3D61.png,https://raw.githubusercontent.com/carero2/loss-perception/main/png/0.505blue1yellowb%3D1w%3D100v%3D61.png,,,,,,,,,true,j,keypress(j),0.505,0.505,false,278388.2000000477,278378.60000002384,274785.281,275132.8000000715,275085.018,278501.639,,,
choice,canvas.Screen,0_8_13_2,2022-07-15T14:17:47.240Z,,,,0.505,,2,933.2339999999967,timeout,,,0.515,,0.515,,,1,-17,,,,,,,,,,,0.505,false,279420.10000002384,279418.371,278468.26,278476.10000002384,278501.639,279434.873,83,,
ITI,canvas.Screen,0_8_13_3,2022-07-15T14:17:47.740Z,,,2090,,,2,499.9629999999888,timeout,,,0.515,,,,,,,,,,,,,,,,,0.505,false,279919.90000009537,279918.327,279418.371,279420.8000000715,279434.873,279934.836,,,
trial,flow.Sequence,0_8_13,2022-07-15T14:17:47.741Z,,,,,,2,5616.429999999993,completion,,,0.515,,,,,,,,,,,,,,,,,0.505,false,279920.90000009537,279918.327,274285.415,274288.90000009537,274301.897,279934.836,,,
fixation,canvas.Screen,0_8_14_0,2022-07-15T14:17:48.240Z,,,,,,2,866.8640000000014,timeout,,,0.495,,,,,,,,,,,,,,,,,0.485,false,280420,280418.233,279918.327,279921.5,279934.836,280801.7,,,
stimulus,canvas.Screen,0_8_14_1,2022-07-15T14:17:52.175Z,,,,,,2,3547.2999999999884,response,,0.495,0.495,,,https://raw.githubusercontent.com/carero2/loss-perception/main/png/0.495blue1yellowb%3D1w%3D100v%3D71.png,https://raw.githubusercontent.com/carero2/loss-perception/main/png/0.485blue1yellowb%3D1w%3D100v%3D71.png,,,,,,,,,true,f,keypress(f),0.485,0.485,false,284354.90000009537,284349,280418.233,280832.3000000715,280801.7,284467.904,,,
choice,canvas.Screen,0_8_14_2,2022-07-15T14:17:53.273Z,,,,0.495,,2,1000.26800000004,timeout,,,0.495,,0.485,,,-1,-18,,,,,,,,,,,0.485,false,285453.40000009537,285451.487,284451.435,284464.90000009537,284467.904,285468.172,82,,
ITI,canvas.Screen,0_8_14_3,2022-07-15T14:17:53.773Z,,,2459,,,2,499.69999999995343,timeout,,,0.495,,,,,,,,,,,,,,,,,0.485,false,285953.40000009537,285951.478,285451.487,285454.10000002384,285468.172,285967.872,,,
trial,flow.Sequence,0_8_14,2022-07-15T14:17:53.774Z,,,,,,2,6016.641999999993,completion,,,0.495,,,,,,,,,,,,,,,,,0.485,false,285954.3000000715,285951.478,279918.327,279921.2000000477,279934.836,285967.872,,,
fixation,canvas.Screen,0_8_15_0,2022-07-15T14:17:54.273Z,,,,,,4,783.2210000000196,timeout,,,0.53,,,,,,,,,,,,,,,,,0.51,true,286453.5,286451.423,285951.478,285954.90000009537,285967.872,286751.093,,,
stimulus,canvas.Screen,0_8_15_1,2022-07-15T14:17:57.928Z,,,,,,4,3350.807000095374,response,,0.51,0.53,,,https://raw.githubusercontent.com/carero2/loss-perception/main/png/0.51blue1yellowb%3D1w%3D100v%3D41.png,https://raw.githubusercontent.com/carero2/loss-perception/main/png/0.53blue1yellowb%3D1w%3D100v%3D41.png,,,,,,,,,true,j,keypress(j),0.53,0.51,true,290108,290101.90000009537,286451.423,286780,286751.093,290234.337,,,
choice,canvas.Screen,0_8_15_2,2022-07-15T14:17:59.040Z,,,,0.53,,4,999.8979999999865,timeout,,,0.53,,0.51,,,6,-12,,,,,,,,,,,0.51,true,291219.8000000715,291217.843,290217.805,290219.10000002384,290234.337,291234.235,88,,
ITI,canvas.Screen,0_8_15_3,2022-07-15T14:17:59.539Z,,,2701,,,4,499.954000000027,timeout,,,0.53,,,,,,,,,,,,,,,,,0.51,true,291719.40000009537,291717.699,291217.843,291220.5,291234.235,291734.189,,,
trial,flow.Sequence,0_8_15,2022-07-15T14:17:59.540Z,,,,,,4,5749.827000000048,completion,,,0.53,,,,,,,,,,,,,,,,,0.51,true,291720.2000000477,291717.699,285951.478,285954.60000002384,285967.872,291734.189,,,
fixation,canvas.Screen,0_8_16_0,2022-07-15T14:18:00.038Z,,,,,,6,849.9319999999716,timeout,,,0.515,,,,,,,,,,,,,,,,,0.485,false,292218.5,292217.471,291717.699,291720.7000000477,291734.189,292584.121,,,
stimulus,canvas.Screen,0_8_16_1,2022-07-15T14:18:03.246Z,,,,,,6,2830.779000095383,response,,0.515,0.515,,,https://raw.githubusercontent.com/carero2/loss-perception/main/png/0.515blue1yellowb%3D1w%3D100v%3D33.png,https://raw.githubusercontent.com/carero2/loss-perception/main/png/0.485blue1yellowb%3D1w%3D100v%3D33.png,,,,,,,,,true,f,keypress(f),0.485,0.485,false,295426.10000002384,295414.90000009537,292217.471,292618.10000002384,292584.121,295550.596,,,
choice,canvas.Screen,0_8_16_2,2022-07-15T14:18:04.355Z,,,,0.515,,6,999.9919999999693,timeout,,,0.515,,0.485,,,3,-9,,,,,,,,,,,0.485,false,296535.40000009537,296533.927,295517.568,295524.60000002384,295550.596,296550.588,91,,
ITI,canvas.Screen,0_8_16_3,2022-07-15T14:18:04.855Z,,,2346,,,6,500,timeout,,,0.515,,,,,,,,,,,,,,,,,0.485,false,297035.40000009537,297033.983,296533.927,296536.10000002384,296550.588,297050.588,,,
trial,flow.Sequence,0_8_16,2022-07-15T14:18:04.856Z,,,,,,6,5299.793999999994,completion,,,0.515,,,,,,,,,,,,,,,,,0.485,false,297036.40000009537,297033.983,291717.699,291720.60000002384,291734.189,297050.588,,,
fixation,canvas.Screen,0_8_17_0,2022-07-15T14:18:05.356Z,,,,,,2,833.255999999994,timeout,,,0.505,,,,,,,,,,,,,,,,,0.495,true,297536.10000002384,297534.111,297033.983,297036.90000009537,297050.588,297883.844,,,
stimulus,canvas.Screen,0_8_17_1,2022-07-15T14:18:08.276Z,,,,,,2,2563.5560000953847,response,,0.495,0.505,,,https://raw.githubusercontent.com/carero2/loss-perception/main/png/0.495blue1yellowb%3D1w%3D100v%3D1.png,https://raw.githubusercontent.com/carero2/loss-perception/main/png/0.505blue1yellowb%3D1w%3D100v%3D1.png,,,,,,,,,true,j,keypress(j),0.505,0.495,true,300456.7000000477,300447.40000009537,297534.111,297931.7000000477,297883.844,300583.773,,,
choice,canvas.Screen,0_8_17_2,2022-07-15T14:18:09.389Z,,,,0.505,,2,999.8950000000186,timeout,,,0.505,,0.495,,,1,-8,,,,,,,,,,,0.495,true,301569.3000000715,301567.079,300533.905,300547.10000002384,300583.773,301583.668,92,,
ITI,canvas.Screen,0_8_17_3,2022-07-15T14:18:09.889Z,,,2647,,,2,500.1049999999814,timeout,,,0.505,,,,,,,,,,,,,,,,,0.495,true,302069.2000000477,302067.283,301567.079,301570.10000002384,301583.668,302083.773,,,
trial,flow.Sequence,0_8_17,2022-07-15T14:18:09.890Z,,,,,,2,5016.695000000007,completion,,,0.505,,,,,,,,,,,,,,,,,0.495,true,302070.40000009537,302067.283,297033.983,297036.8000000715,297050.588,302083.773,,,
fixation,canvas.Screen,0_8_18_0,2022-07-15T14:18:10.388Z,,,,,,2,566.4440000000177,timeout,,,0.505,,,,,,,,,,,,,,,,,0.495,true,302568.60000002384,302567.135,302067.283,302070.90000009537,302083.773,302650.217,,,
stimulus,canvas.Screen,0_8_18_1,2022-07-15T14:18:13.179Z,,,,,,2,2698.5830000715214,response,,0.495,0.505,,,https://raw.githubusercontent.com/carero2/loss-perception/main/png/0.495blue1yellowb%3D1w%3D100v%3D1.png,https://raw.githubusercontent.com/carero2/loss-perception/main/png/0.505blue1yellowb%3D1w%3D100v%3D1.png,,,,,,,,,true,f,keypress(f),0.505,0.495,true,305355.2000000477,305348.8000000715,302567.135,302662,302650.217,305500.325,,,
choice,canvas.Screen,0_8_18_2,2022-07-15T14:18:14.309Z,,,,0.495,,2,999.8740000000107,timeout,,,0.505,,0.505,,,-1,-9,,,,,,,,,,,0.495,true,306485.7000000477,306483.568,305466.973,305468.5,305500.325,306500.199,91,,
ITI,canvas.Screen,0_8_18_3,2022-07-15T14:18:14.809Z,,,2338,,,2,499.8409999999567,timeout,,,0.505,,,,,,,,,,,,,,,,,0.495,true,306985.60000002384,306983.624,306483.568,306486.3000000715,306500.199,307000.04,,,
trial,flow.Sequence,0_8_18,2022-07-15T14:18:14.810Z,,,,,,2,4899.851000000024,completion,,,0.505,,,,,,,,,,,,,,,,,0.495,true,306986.40000009537,306983.624,302067.283,302070.8000000715,302083.773,307000.04,,,
fixation,canvas.Screen,0_8_19_0,2022-07-15T14:18:15.309Z,,,,,,4,833.3640000000014,timeout,,,0.51,,,,,,,,,,,,,,,,,0.49,true,307485.2000000477,307483.512,306983.624,306987,307000.04,307833.404,,,
stimulus,canvas.Screen,0_8_19_1,2022-07-15T14:18:18.282Z,,,,,,4,2620.1960000238614,response,,0.49,0.51,,,https://raw.githubusercontent.com/carero2/loss-perception/main/png/0.49blue1yellowb%3D1w%3D100v%3D77.png,https://raw.githubusercontent.com/carero2/loss-perception/main/png/0.51blue1yellowb%3D1w%3D100v%3D77.png,,,,,,,,,true,j,keypress(j),0.51,0.49,true,310458.2000000477,310453.60000002384,307483.512,307875.10000002384,307833.404,310583.259,,,
choice,canvas.Screen,0_8_19_2,2022-07-15T14:18:19.392Z,,,,0.51,,4,1000.1030000000028,timeout,,,0.51,,0.49,,,2,-7,,,,,,,,,,,0.49,true,311568.7000000477,311566.713,310566.833,310567.40000009537,310583.259,311583.362,93,,
ITI,canvas.Screen,0_8_19_3,2022-07-15T14:18:19.893Z,,,2412,,,4,499.79799999995157,timeout,,,0.51,,,,,,,,,,,,,,,,,0.49,true,312069.7000000477,312066.474,311566.713,311569.40000009537,311583.362,312083.16,,,
trial,flow.Sequence,0_8_19,2022-07-15T14:18:19.894Z,,,,,,4,5066.434000000008,completion,,,0.51,,,,,,,,,,,,,,,,,0.49,true,312070.60000002384,312066.474,306983.624,306986.8000000715,307000.04,312083.16,,,
fixation,canvas.Screen,0_8_20_0,2022-07-15T14:18:20.392Z,,,,,,6,599.8680000000168,timeout,,,0.485,,,,,,,,,,,,,,,,,0.455,true,312568.60000002384,312566.693,312066.474,312071.2000000477,312083.16,312683.028,,,
stimulus,canvas.Screen,0_8_20_1,2022-07-15T14:18:22.581Z,,,,,,6,2069.972000000009,response,,0.455,0.485,,,https://raw.githubusercontent.com/carero2/loss-perception/main/png/0.455blue1yellowb%3D1w%3D100v%3D92.png,https://raw.githubusercontent.com/carero2/loss-perception/main/png/0.485blue1yellowb%3D1w%3D100v%3D92.png,,,,,,,,,true,f,keypress(f),0.485,0.455,true,314757.40000009537,314753,312566.693,312661.5,312683.028,314882.912,,,
choice,canvas.Screen,0_8_20_2,2022-07-15T14:18:23.692Z,,,,0.455,,6,1000.0139999999665,timeout,,,0.485,,0.485,,,-9,-16,,,,,,,,,,,0.455,true,315868.10000002384,315866.405,314849.857,314852.7000000477,314882.912,315882.926,84,,
ITI,canvas.Screen,0_8_20_3,2022-07-15T14:18:24.192Z,,,2408,,,6,500.02800000004936,timeout,,,0.485,,,,,,,,,,,,,,,,,0.455,true,316368.40000009537,316366.495,315866.405,315868.8000000715,315882.926,316382.954,,,
trial,flow.Sequence,0_8_20,2022-07-15T14:18:24.193Z,,,,,,6,4283.335000000021,completion,,,0.485,,,,,,,,,,,,,,,,,0.455,true,316369.60000002384,316366.495,312066.474,312071,312083.16,316382.954,,,
fixation,canvas.Screen,0_8_21_0,2022-07-15T14:18:24.691Z,,,,,,4,749.8879999999772,timeout,,,0.49,,,,,,,,,,,,,,,,,0.47,true,316867.8000000715,316866.352,316366.495,316370.2000000477,316382.954,317132.842,,,
stimulus,canvas.Screen,0_8_21_1,2022-07-15T14:18:27.195Z,,,,,,4,2233.3580000476795,response,,0.47,0.49,,,https://raw.githubusercontent.com/carero2/loss-perception/main/png/0.47blue1yellowb%3D1w%3D100v%3D43.png,https://raw.githubusercontent.com/carero2/loss-perception/main/png/0.49blue1yellowb%3D1w%3D100v%3D43.png,,,,,,,,,true,f,keypress(f),0.49,0.47,true,319372,319366.2000000477,316866.352,317169.7000000477,317132.842,319482.62,,,
choice,canvas.Screen,0_8_21_2,2022-07-15T14:18:28.292Z,,,,0.47,,4,1000.0659999999916,timeout,,,0.49,,0.49,,,-6,-22,,,,,,,,,,,0.47,true,320468.3000000715,320466.405,319449.387,319459.7000000477,319482.62,320482.686,78,,
ITI,canvas.Screen,0_8_21_3,2022-07-15T14:18:28.791Z,,,2382,,,4,499.9340000000084,timeout,,,0.49,,,,,,,,,,,,,,,,,0.47,true,320967.60000002384,320966.127,320466.405,320469.10000002384,320482.686,320982.62,,,
trial,flow.Sequence,0_8_21,2022-07-15T14:18:28.792Z,,,,,,4,4583.172999999952,completion,,,0.49,,,,,,,,,,,,,,,,,0.47,true,320968.60000002384,320966.127,316366.495,316369.90000009537,316382.954,320982.62,,,
fixation,canvas.Screen,0_8_22_0,2022-07-15T14:18:29.291Z,,,,,,4,866.5779999999795,timeout,,,0.53,,,,,,,,,,,,,,,,,0.51,true,321467.5,321466.121,320966.127,320969.2000000477,320982.62,321849.198,,,
stimulus,canvas.Screen,0_8_22_1,2022-07-15T14:18:32.396Z,,,,,,4,2714.902000023867,response,,0.51,0.53,,,https://raw.githubusercontent.com/carero2/loss-perception/main/png/0.51blue1yellowb%3D1w%3D100v%3D36.png,https://raw.githubusercontent.com/carero2/loss-perception/main/png/0.53blue1yellowb%3D1w%3D100v%3D36.png,,,,,,,,,true,j,keypress(j),0.53,0.51,true,324573,324564.10000002384,321466.121,321884.10000002384,321849.198,324665.692,,,
choice,canvas.Screen,0_8_22_2,2022-07-15T14:18:33.475Z,,,,0.53,,4,1000.064000000013,timeout,,,0.53,,0.51,,,6,-16,,,,,,,,,,,0.51,true,325651.5,325649.333,324649.275,324662.8000000715,324665.692,325665.756,84,,
ITI,canvas.Screen,0_8_22_3,2022-07-15T14:18:33.975Z,,,2232,,,4,499.9670000000042,timeout,,,0.53,,,,,,,,,,,,,,,,,0.51,true,326151.2000000477,326149.304,325649.333,325653.60000002384,325665.756,326165.723,,,
trial,flow.Sequence,0_8_22,2022-07-15T14:18:33.975Z,,,,,,4,5166.684000000008,completion,,,0.53,,,,,,,,,,,,,,,,,0.51,true,326152,326149.304,320966.127,320969.10000002384,320982.62,326165.723,,,
fixation,canvas.Screen,0_8_23_0,2022-07-15T14:18:34.475Z,,,,,,2,749.9689999999828,timeout,,,0.515,,,,,,,,,,,,,,,,,0.505,false,326651.40000009537,326649.295,326149.304,326152.5,326165.723,326915.692,,,
stimulus,canvas.Screen,0_8_23_1,2022-07-15T14:18:36.682Z,,,,,,2,1937.908000023861,response,,0.515,0.515,,,https://raw.githubusercontent.com/carero2/loss-perception/main/png/0.515blue1yellowb%3D1w%3D100v%3D23.png,https://raw.githubusercontent.com/carero2/loss-perception/main/png/0.505blue1yellowb%3D1w%3D100v%3D23.png,,,,,,,,,true,f,keypress(f),0.505,0.505,false,328858.60000002384,328853.60000002384,326649.295,326973.10000002384,326915.692,328982.149,,,
choice,canvas.Screen,0_8_23_2,2022-07-15T14:18:37.791Z,,,,0.515,,2,1000.0109999999986,timeout,,,0.515,,0.505,,,3,-13,,,,,,,,,,,0.505,false,329967.7000000477,329965.825,328949.215,328955.40000009537,328982.149,329982.16,87,,
ITI,canvas.Screen,0_8_23_3,2022-07-15T14:18:38.291Z,,,2033,,,2,500.03900000004796,timeout,,,0.515,,,,,,,,,,,,,,,,,0.505,false,330467.60000002384,330465.733,329965.825,329968.40000009537,329982.16,330482.199,,,
trial,flow.Sequence,0_8_23,2022-07-15T14:18:38.292Z,,,,,,2,4300.010000000009,completion,,,0.515,,,,,,,,,,,,,,,,,0.505,false,330468.3000000715,330465.733,326149.304,326152.40000009537,326165.723,330482.199,,,
fixation,canvas.Screen,0_8_24_0,2022-07-15T14:18:38.791Z,,,,,,6,783.24099999998,timeout,,,0.545,,,,,,,,,,,,,,,,,0.515,false,330967.60000002384,330965.729,330465.733,330468.8000000715,330482.199,331265.44,,,
stimulus,canvas.Screen,0_8_24_1,2022-07-15T14:18:40.645Z,,,,,,6,1551.3600000715232,response,,0.545,0.545,,,https://raw.githubusercontent.com/carero2/loss-perception/main/png/0.545blue1yellowb%3D1w%3D100v%3D53.png,https://raw.githubusercontent.com/carero2/loss-perception/main/png/0.515blue1yellowb%3D1w%3D100v%3D53.png,,,,,,,,,true,j,keypress(j),0.515,0.515,false,332821.90000009537,332816.8000000715,330965.729,331312.60000002384,331265.44,332931.934,,,
choice,canvas.Screen,0_8_24_2,2022-07-15T14:18:41.740Z,,,,0.515,,6,999.9710000000196,timeout,,,0.545,,0.545,,,3,-10,,,,,,,,,,,0.515,false,333917.10000002384,333915.434,332915.42,332915.40000009537,332931.934,333931.905,90,,
ITI,canvas.Screen,0_8_24_3,2022-07-15T14:18:42.240Z,,,2456,,,6,500.0689999999595,timeout,,,0.545,,,,,,,,,,,,,,,,,0.515,false,334416.8000000715,334415.427,333915.434,333917.7000000477,333931.905,334431.974,,,
trial,flow.Sequence,0_8_24,2022-07-15T14:18:42.241Z,,,,,,6,3933.228000000003,completion,,,0.545,,,,,,,,,,,,,,,,,0.515,false,334417.60000002384,334415.427,330465.733,330468.7000000477,330482.199,334431.974,,,
fixation,canvas.Screen,0_8_25_0,2022-07-15T14:18:42.741Z,,,,,,2,750.0879999999888,timeout,,,0.495,,,,,,,,,,,,,,,,,0.485,true,334917.40000009537,334915.519,334415.427,334418.10000002384,334431.974,335182.062,,,
stimulus,canvas.Screen,0_8_25_1,2022-07-15T14:18:45.170Z,,,,,,2,2159.6380000477075,response,,0.485,0.495,,,https://raw.githubusercontent.com/carero2/loss-perception/main/png/0.485blue1yellowb%3D1w%3D100v%3D40.png,https://raw.githubusercontent.com/carero2/loss-perception/main/png/0.495blue1yellowb%3D1w%3D100v%3D40.png,,,,,,,,,true,j,keypress(j),0.495,0.485,true,337346.40000009537,337341.7000000477,334915.519,335212.5,335182.062,337465.031,,,
choice,canvas.Screen,0_8_25_2,2022-07-15T14:18:46.273Z,,,,0.495,,2,999.975999999966,timeout,,,0.495,,0.485,,,-1,-11,,,,,,,,,,,0.485,true,338449.90000009537,338448.383,337431.852,337442.90000009537,337465.031,338465.007,89,,
ITI,canvas.Screen,0_8_25_3,2022-07-15T14:18:46.774Z,,,2044,,,2,499.99600000004284,timeout,,,0.495,,,,,,,,,,,,,,,,,0.485,true,338950.40000009537,338948.553,338448.383,338450.60000002384,338465.007,338965.003,,,
trial,flow.Sequence,0_8_25,2022-07-15T14:18:46.776Z,,,,,,2,4516.579000000027,completion,,,0.495,,,,,,,,,,,,,,,,,0.485,true,338952.7000000477,338948.553,334415.427,334417.90000009537,334431.974,338965.003,,,
fixation,canvas.Screen,0_8_26_0,2022-07-15T14:18:47.273Z,,,,,,6,599.8899999999558,timeout,,,0.515,,,,,,,,,,,,,,,,,0.485,true,339449.7000000477,339448.367,338948.553,338953.40000009537,338965.003,339564.893,,,
stimulus,canvas.Screen,0_8_26_1,2022-07-15T14:18:49.852Z,,,,,,6,2458.5070000953856,response,,0.485,0.515,,,https://raw.githubusercontent.com/carero2/loss-perception/main/png/0.485blue1yellowb%3D1w%3D100v%3D2.png,https://raw.githubusercontent.com/carero2/loss-perception/main/png/0.515blue1yellowb%3D1w%3D100v%3D2.png,,,,,,,,,true,f,keypress(f),0.515,0.485,true,342028.60000002384,342023.40000009537,339448.367,339601.60000002384,339564.893,342148.092,,,
choice,canvas.Screen,0_8_26_2,2022-07-15T14:18:50.957Z,,,,0.485,,6,1000.0100000000093,timeout,,,0.515,,0.515,,,-3,-14,,,,,,,,,,,0.485,true,343133.7000000477,343131.723,342115.003,342123.8000000715,342148.092,343148.102,86,,
ITI,canvas.Screen,0_8_26_3,2022-07-15T14:18:51.456Z,,,2212,,,6,499.9519999999902,timeout,,,0.515,,,,,,,,,,,,,,,,,0.485,true,343633,343631.595,343131.723,343134.5,343148.102,343648.054,,,
trial,flow.Sequence,0_8_26,2022-07-15T14:18:51.457Z,,,,,,6,4666.591999999946,completion,,,0.515,,,,,,,,,,,,,,,,,0.485,true,343633.8000000715,343631.595,338948.553,338953.10000002384,338965.003,343648.054,,,
fixation,canvas.Screen,0_8_27_0,2022-07-15T14:18:51.956Z,,,,,,4,800.244000000006,timeout,,,0.51,,,,,,,,,,,,,,,,,0.49,false,344133.10000002384,344131.54,343631.595,343634.3000000715,343648.054,344448.298,,,
stimulus,canvas.Screen,0_8_27_1,2022-07-15T14:18:54.157Z,,,,,,4,1882.402000047674,response,,0.51,0.51,,,https://raw.githubusercontent.com/carero2/loss-perception/main/png/0.51blue1yellowb%3D1w%3D100v%3D47.png,https://raw.githubusercontent.com/carero2/loss-perception/main/png/0.49blue1yellowb%3D1w%3D100v%3D47.png,,,,,,,,,true,j,keypress(j),0.49,0.49,false,346333.90000009537,346330.7000000477,344131.54,344515.60000002384,344448.298,346464.544,,,
choice,canvas.Screen,0_8_27_2,2022-07-15T14:18:55.274Z,,,,0.49,,4,999.9430000000284,timeout,,,0.51,,0.51,,,-2,-16,,,,,,,,,,,0.49,false,347450.2000000477,347447.995,346431.28,346434.7000000477,346464.544,347464.487,84,,
ITI,canvas.Screen,0_8_27_3,2022-07-15T14:18:55.773Z,,,2143,,,4,500.0599999999977,timeout,,,0.51,,,,,,,,,,,,,,,,,0.49,false,347950,347948.139,347447.995,347451,347464.487,347964.547,,,
trial,flow.Sequence,0_8_27,2022-07-15T14:18:55.776Z,,,,,,4,4300.085000000021,completion,,,0.51,,,,,,,,,,,,,,,,,0.49,false,347952.3000000715,347948.139,343631.595,343634.10000002384,343648.054,347964.547,,,
fixation,canvas.Screen,0_8_28_0,2022-07-15T14:18:56.273Z,,,,,,2,783.2719999999972,timeout,,,0.515,,,,,,,,,,,,,,,,,0.505,true,348449.40000009537,348448.006,347948.139,347953,347964.547,348747.819,,,
stimulus,canvas.Screen,0_8_28_1,2022-07-15T14:18:57.959Z,,,,,,2,1379.2810000238242,response,,0.505,0.515,,,https://raw.githubusercontent.com/carero2/loss-perception/main/png/0.505blue1yellowb%3D1w%3D100v%3D42.png,https://raw.githubusercontent.com/carero2/loss-perception/main/png/0.515blue1yellowb%3D1w%3D100v%3D42.png,,,,,,,,,true,f,keypress(f),0.515,0.505,true,350135.3000000715,350127.10000002384,348448.006,348808.60000002384,348747.819,350264.357,,,
choice,canvas.Screen,0_8_28_2,2022-07-15T14:18:59.073Z,,,,0.505,,2,999.9369999999763,timeout,,,0.515,,0.515,,,1,-15,,,,,,,,,,,0.505,true,351249.90000009537,351247.954,350247.88,350253.5,350264.357,351264.294,85,,
ITI,canvas.Screen,0_8_28_3,2022-07-15T14:18:59.573Z,,,2624,,,2,500.07600000000093,timeout,,,0.515,,,,,,,,,,,,,,,,,0.505,true,351749.90000009537,351747.948,351247.954,351250.60000002384,351264.294,351764.37,,,
trial,flow.Sequence,0_8_28,2022-07-15T14:18:59.574Z,,,,,,2,3783.4009999999544,completion,,,0.515,,,,,,,,,,,,,,,,,0.505,true,351750.8000000715,351747.948,347948.139,347952.90000009537,347964.547,351764.37,,,
fixation,canvas.Screen,0_8_29_0,2022-07-15T14:19:00.073Z,,,,,,6,766.5979999999981,timeout,,,0.545,,,,,,,,,,,,,,,,,0.515,false,352249.2000000477,352247.807,351747.948,351751.3000000715,351764.37,352530.968,,,
stimulus,canvas.Screen,0_8_29_1,2022-07-15T14:19:06.382Z,,,,,,6,6023.5320000000065,response,,0.545,0.545,,,https://raw.githubusercontent.com/carero2/loss-perception/main/png/0.545blue1yellowb%3D1w%3D100v%3D56.png,https://raw.githubusercontent.com/carero2/loss-perception/main/png/0.515blue1yellowb%3D1w%3D100v%3D56.png,,,,,,,,,true,f,keypress(f),0.515,0.515,false,358559,358554.5,352247.807,352620.5,352530.968,358663.891,,,
choice,canvas.Screen,0_8_29_2,2022-07-15T14:19:07.473Z,,,,0.545,,6,1000.1169999999693,timeout,,,0.545,,0.515,,,9,-6,,,,,,,,,,,0.515,false,359649.10000002384,359647.392,358647.419,358661.7000000477,358663.891,359664.008,94,,
ITI,canvas.Screen,0_8_29_3,2022-07-15T14:19:07.972Z,,,2975,,,6,499.8330000000424,timeout,,,0.545,,,,,,,,,,,,,,,,,0.515,false,360148.8000000715,360147.399,359647.392,359649.7000000477,359664.008,360163.841,,,
trial,flow.Sequence,0_8_29,2022-07-15T14:19:07.974Z,,,,,,6,8383.02899999998,completion,,,0.545,,,,,,,,,,,,,,,,,0.515,false,360150.60000002384,360147.399,351747.948,351751.2000000477,351764.37,360163.841,,,
fixation,canvas.Screen,0_8_30_0,2022-07-15T14:19:08.473Z,,,,,,6,799.9039999999804,timeout,,,0.485,,,,,,,,,,,,,,,,,0.455,false,360649.3000000715,360647.47,360147.399,360151.3000000715,360163.841,360963.745,,,
stimulus,canvas.Screen,0_8_30_1,2022-07-15T14:19:12.677Z,,,,,,6,3884.8550000238465,response,,0.485,0.485,,,https://raw.githubusercontent.com/carero2/loss-perception/main/png/0.485blue1yellowb%3D1w%3D100v%3D74.png,https://raw.githubusercontent.com/carero2/loss-perception/main/png/0.455blue1yellowb%3D1w%3D100v%3D74.png,,,,,,,,,true,j,keypress(j),0.455,0.455,false,364853.90000009537,364848.60000002384,360647.47,361013.2000000477,360963.745,364963.554,,,
choice,canvas.Screen,0_8_30_2,2022-07-15T14:19:13.775Z,,,,0.455,,6,1000.1230000000214,timeout,,,0.485,,0.485,,,-9,-15,,,,,,,,,,,0.455,false,365948.7000000477,365947.048,364930.267,364936.60000002384,364963.554,365963.677,85,,
ITI,canvas.Screen,0_8_30_3,2022-07-15T14:19:14.274Z,,,2211,,,6,499.850999999966,timeout,,,0.485,,,,,,,,,,,,,,,,,0.455,false,366448.5,366447.04,365947.048,365949.40000009537,365963.677,366463.528,,,
trial,flow.Sequence,0_8_30,2022-07-15T14:19:14.276Z,,,,,,6,6283.198999999964,completion,,,0.485,,,,,,,,,,,,,,,,,0.455,false,366450.40000009537,366447.04,360147.399,360151.10000002384,360163.841,366463.528,,,
fixation,canvas.Screen,0_8_31_0,2022-07-15T14:19:14.775Z,,,,,,4,866.5559999999823,timeout,,,0.49,,,,,,,,,,,,,,,,,0.47,false,366948.90000009537,366947.129,366447.04,366451,366463.528,367330.084,,,
stimulus,canvas.Screen,0_8_31_1,2022-07-15T14:19:19.664Z,,,,,,4,4502.716000071552,response,,0.49,0.49,,,https://raw.githubusercontent.com/carero2/loss-perception/main/png/0.49blue1yellowb%3D1w%3D100v%3D32.png,https://raw.githubusercontent.com/carero2/loss-perception/main/png/0.47blue1yellowb%3D1w%3D100v%3D32.png,,,,,,,,,true,j,keypress(j),0.47,0.47,false,371837.7000000477,371832.8000000715,366947.129,367372.5,367330.084,371946.575,,,
choice,canvas.Screen,0_8_31_2,2022-07-15T14:19:20.758Z,,,,0.47,,4,999.984999999986,timeout,,,0.49,,0.49,,,-6,-21,,,,,,,,,,,0.47,false,372931.8000000715,372930.008,371913.36,371922.10000002384,371946.575,372946.56,79,,
ITI,canvas.Screen,0_8_31_3,2022-07-15T14:19:21.258Z,,,2925,,,4,499.84799999999814,timeout,,,0.49,,,,,,,,,,,,,,,,,0.47,false,373431.90000009537,373430.111,372930.008,372932.40000009537,372946.56,373446.408,,,
trial,flow.Sequence,0_8_31,2022-07-15T14:19:21.259Z,,,,,,4,6966.582999999984,completion,,,0.49,,,,,,,,,,,,,,,,,0.47,false,373433.10000002384,373430.111,366447.04,366450.8000000715,366463.528,373446.408,,,
fixation,canvas.Screen,0_8_32_0,2022-07-15T14:19:21.758Z,,,,,,6,833.2729999999865,timeout,,,0.515,,,,,,,,,,,,,,,,,0.485,false,373931.8000000715,373929.832,373430.111,373433.60000002384,373446.408,374279.681,,,
stimulus,canvas.Screen,0_8_32_1,2022-07-15T14:19:25.924Z,,,,,,6,3812.4190000238596,response,,0.515,0.515,,,https://raw.githubusercontent.com/carero2/loss-perception/main/png/0.515blue1yellowb%3D1w%3D100v%3D86.png,https://raw.githubusercontent.com/carero2/loss-perception/main/png/0.485blue1yellowb%3D1w%3D100v%3D86.png,,,,,,,,,true,j,keypress(j),0.485,0.485,false,378097.90000009537,378092.10000002384,373929.832,374316,374279.681,378212.865,,,
choice,canvas.Screen,0_8_32_2,2022-07-15T14:19:27.024Z,,,,0.485,,6,999.9270000000251,timeout,,,0.515,,0.515,,,-3,-24,,,,,,,,,,,0.485,false,379198.5,379196.454,378196.471,378210.8000000715,378212.865,379212.792,76,,
ITI,canvas.Screen,0_8_32_3,2022-07-15T14:19:27.523Z,,,2890,,,6,500.06400000001304,timeout,,,0.515,,,,,,,,,,,,,,,,,0.485,false,379697.60000002384,379696.117,379196.454,379199,379212.792,379712.856,,,
trial,flow.Sequence,0_8_32,2022-07-15T14:19:27.524Z,,,,,,6,6249.709000000032,completion,,,0.515,,,,,,,,,,,,,,,,,0.485,false,379698.3000000715,379696.117,373430.111,373433.40000009537,373446.408,379712.856,,,
fixation,canvas.Screen,0_8_33_0,2022-07-15T14:19:28.024Z,,,,,,2,783.3379999999888,timeout,,,0.495,,,,,,,,,,,,,,,,,0.485,true,380198,380196.386,379696.117,379698.8000000715,379712.856,380496.194,,,
stimulus,canvas.Screen,0_8_33_1,2022-07-15T14:19:32.002Z,,,,,,2,3675.606000071508,response,,0.485,0.495,,,https://raw.githubusercontent.com/carero2/loss-perception/main/png/0.485blue1yellowb%3D1w%3D100v%3D68.png,https://raw.githubusercontent.com/carero2/loss-perception/main/png/0.495blue1yellowb%3D1w%3D100v%3D68.png,,,,,,,,,true,f,keypress(f),0.495,0.485,true,384176.2000000477,384171.8000000715,380196.386,380537.40000009537,380496.194,384295.813,,,
choice,canvas.Screen,0_8_33_2,2022-07-15T14:19:33.107Z,,,,0.485,,2,1000.0019999999786,timeout,,,0.495,,0.495,,,-3,-27,,,,,,,,,,,0.485,true,385281.3000000715,385279.419,384262.759,384272.10000002384,384295.813,385295.815,73,,
ITI,canvas.Screen,0_8_33_3,2022-07-15T14:19:33.607Z,,,2528,,,2,499.9670000000042,timeout,,,0.495,,,,,,,,,,,,,,,,,0.485,true,385780.7000000477,385779.131,385279.419,385282,385295.815,385795.782,,,
trial,flow.Sequence,0_8_33,2022-07-15T14:19:33.607Z,,,,,,2,6066.274999999965,completion,,,0.495,,,,,,,,,,,,,,,,,0.485,true,385781.2000000477,385779.131,379696.117,379698.7000000477,379712.856,385795.782,,,
fixation,canvas.Screen,0_8_34_0,2022-07-15T14:19:34.107Z,,,,,,4,883.3069999999716,timeout,,,0.53,,,,,,,,,,,,,,,,,0.51,true,386280.8000000715,386279.308,385779.131,385781.5,385795.782,386679.089,,,
stimulus,canvas.Screen,0_8_34_1,2022-07-15T14:19:40.044Z,,,,,,4,5535.411000000022,response,,0.51,0.53,,,https://raw.githubusercontent.com/carero2/loss-perception/main/png/0.51blue1yellowb%3D1w%3D100v%3D2.png,https://raw.githubusercontent.com/carero2/loss-perception/main/png/0.53blue1yellowb%3D1w%3D100v%3D2.png,,,,,,,,,true,f,keypress(f),0.53,0.51,true,392218,392214.5,386279.308,386725.5,386679.089,392328.714,,,
choice,canvas.Screen,0_8_34_2,2022-07-15T14:19:41.140Z,,,,0.51,,4,1000.0380000000005,timeout,,,0.53,,0.53,,,2,-25,,,,,,,,,,,0.51,true,393314.60000002384,393312.38,392312.35,392312.7000000477,392328.714,393328.752,75,,
ITI,canvas.Screen,0_8_34_3,2022-07-15T14:19:41.640Z,,,2355,,,4,499.89300000004005,timeout,,,0.53,,,,,,,,,,,,,,,,,0.51,true,393814.3000000715,393812.356,393312.38,393315.3000000715,393328.752,393828.645,,,
trial,flow.Sequence,0_8_34,2022-07-15T14:19:41.641Z,,,,,,4,8016.574000000022,completion,,,0.53,,,,,,,,,,,,,,,,,0.51,true,393815.40000009537,393812.356,385779.131,385781.3000000715,385795.782,393828.645,,,
fixation,canvas.Screen,0_8_35_0,2022-07-15T14:19:42.139Z,,,,,,2,850.0860000000102,timeout,,,0.505,,,,,,,,,,,,,,,,,0.495,false,394313.40000009537,394312.014,393812.356,393815.90000009537,393828.645,394678.731,,,
stimulus,canvas.Screen,0_8_35_1,2022-07-15T14:19:47.252Z,,,,,,2,4736.969000047655,response,,0.505,0.505,,,https://raw.githubusercontent.com/carero2/loss-perception/main/png/0.505blue1yellowb%3D1w%3D100v%3D22.png,https://raw.githubusercontent.com/carero2/loss-perception/main/png/0.495blue1yellowb%3D1w%3D100v%3D22.png,,,,,,,,,true,j,keypress(j),0.495,0.495,false,399426,399415.7000000477,394312.014,394710.8000000715,394678.731,399544.982,,,
choice,canvas.Screen,0_8_35_2,2022-07-15T14:19:48.357Z,,,,0.495,,2,1000.1609999999637,timeout,,,0.505,,0.505,,,-1,-26,,,,,,,,,,,0.495,false,400530.90000009537,400528.639,399528.415,399532.60000002384,399544.982,400545.143,74,,
ITI,canvas.Screen,0_8_35_3,2022-07-15T14:19:48.857Z,,,2937,,,2,499.8410000000149,timeout,,,0.505,,,,,,,,,,,,,,,,,0.495,false,401030.90000009537,401028.356,400528.639,400531.60000002384,400545.143,401044.984,,,
trial,flow.Sequence,0_8_35,2022-07-15T14:19:48.858Z,,,,,,2,7199.71100000001,completion,,,0.505,,,,,,,,,,,,,,,,,0.495,false,401031.8000000715,401028.356,393812.356,393815.8000000715,393828.645,401044.984,,,
fixation,canvas.Screen,0_8_36_0,2022-07-15T14:19:49.356Z,,,,,,6,733.3369999999995,timeout,,,0.515,,,,,,,,,,,,,,,,,0.485,false,401530.60000002384,401528.584,401028.356,401032.40000009537,401044.984,401778.321,,,
stimulus,canvas.Screen,0_8_36_1,2022-07-15T14:19:52.366Z,,,,,,6,2757.1790000000037,response,,0.515,0.515,,,https://raw.githubusercontent.com/carero2/loss-perception/main/png/0.515blue1yellowb%3D1w%3D100v%3D95.png,https://raw.githubusercontent.com/carero2/loss-perception/main/png/0.485blue1yellowb%3D1w%3D100v%3D95.png,,,,,,,,,true,f,keypress(f),0.485,0.485,false,404540,404535.5,401528.584,401835.10000002384,401778.321,404644.756,,,
choice,canvas.Screen,0_8_36_2,2022-07-15T14:19:53.455Z,,,,0.515,,6,999.9839999999967,timeout,,,0.515,,0.485,,,3,-23,,,,,,,,,,,0.485,false,405629,405628.006,404611.476,404627.60000002384,404644.756,405644.74,77,,
ITI,canvas.Screen,0_8_36_3,2022-07-15T14:19:53.955Z,,,2595,,,6,499.9120000000112,timeout,,,0.515,,,,,,,,,,,,,,,,,0.485,false,406129.60000002384,406128.012,405628.006,405629.40000009537,405644.74,406144.652,,,
trial,flow.Sequence,0_8_36,2022-07-15T14:19:53.956Z,,,,,,6,5083.027999999991,completion,,,0.515,,,,,,,,,,,,,,,,,0.485,false,406130.2000000477,406128.012,401028.356,401032.2000000477,401044.984,406144.652,,,
fixation,canvas.Screen,0_8_37_0,2022-07-15T14:19:54.455Z,,,,,,6,716.63400000002,timeout,,,0.485,,,,,,,,,,,,,,,,,0.455,true,406629.5,406628.052,406128.012,406130.5,406144.652,406861.286,,,
stimulus,canvas.Screen,0_8_37_1,2022-07-15T14:19:56.263Z,,,,,,6,1571.31400002382,response,,0.455,0.485,,,https://raw.githubusercontent.com/carero2/loss-perception/main/png/0.455blue1yellowb%3D1w%3D100v%3D29.png,https://raw.githubusercontent.com/carero2/loss-perception/main/png/0.485blue1yellowb%3D1w%3D100v%3D29.png,,,,,,,,,true,j,keypress(j),0.485,0.455,true,408437.2000000477,408432.60000002384,406628.052,406895.10000002384,406861.286,408544.575,,,
choice,canvas.Screen,0_8_37_2,2022-07-15T14:19:57.357Z,,,,0.485,,6,999.9839999999967,timeout,,,0.485,,0.455,,,-3,-26,,,,,,,,,,,0.455,true,409530.7000000477,409528.056,408527.941,408540.10000002384,408544.575,409544.559,74,,
ITI,canvas.Screen,0_8_37_3,2022-07-15T14:19:57.855Z,,,2718,,,6,499.96199999999953,timeout,,,0.485,,,,,,,,,,,,,,,,,0.455,true,410029.5,410028.033,409528.056,409531.40000009537,409544.559,410044.521,,,
trial,flow.Sequence,0_8_37,2022-07-15T14:19:57.856Z,,,,,,6,3883.380999999994,completion,,,0.485,,,,,,,,,,,,,,,,,0.455,true,410030.2000000477,410028.033,406128.012,406130.40000009537,406144.652,410044.521,,,
fixation,canvas.Screen,0_8_38_0,2022-07-15T14:19:58.356Z,,,,,,4,783.265000000014,timeout,,,0.51,,,,,,,,,,,,,,,,,0.49,true,410529.8000000715,410528.104,410028.033,410030.7000000477,410044.521,410827.786,,,
stimulus,canvas.Screen,0_8_38_1,2022-07-15T14:20:01.807Z,,,,,,4,3149.1140000953455,response,,0.49,0.51,,,https://raw.githubusercontent.com/carero2/loss-perception/main/png/0.49blue1yellowb%3D1w%3D100v%3D80.png,https://raw.githubusercontent.com/carero2/loss-perception/main/png/0.51blue1yellowb%3D1w%3D100v%3D80.png,,,,,,,,,true,j,keypress(j),0.51,0.49,true,413980.8000000715,413976.90000009537,410528.104,410867.10000002384,410827.786,414094.205,,,
choice,canvas.Screen,0_8_38_2,2022-07-15T14:20:02.905Z,,,,0.51,,4,1000.3150000000023,timeout,,,0.51,,0.49,,,2,-24,,,,,,,,,,,0.49,true,415079.5,415077.615,414077.813,414085.40000009537,414094.205,415094.52,76,,
ITI,canvas.Screen,0_8_38_3,2022-07-15T14:20:03.405Z,,,2347,,,4,499.625,timeout,,,0.51,,,,,,,,,,,,,,,,,0.49,true,415579.60000002384,415577.828,415077.615,415080.2000000477,415094.52,415594.145,,,
trial,flow.Sequence,0_8_38,2022-07-15T14:20:03.406Z,,,,,,4,5533.306999999972,completion,,,0.51,,,,,,,,,,,,,,,,,0.49,true,415580.40000009537,415577.828,410028.033,410030.7000000477,410044.521,415594.145,,,
fixation,canvas.Screen,0_8_39_0,2022-07-15T14:20:03.906Z,,,,,,2,783.5149999999558,timeout,,,0.505,,,,,,,,,,,,,,,,,0.495,false,416079.8000000715,416077.806,415577.828,415580.90000009537,415594.145,416377.66,,,
stimulus,canvas.Screen,0_8_39_1,2022-07-15T14:20:06.302Z,,,,,,2,2093.640000071551,response,,0.505,0.505,,,https://raw.githubusercontent.com/carero2/loss-perception/main/png/0.505blue1yellowb%3D1w%3D100v%3D70.png,https://raw.githubusercontent.com/carero2/loss-perception/main/png/0.495blue1yellowb%3D1w%3D100v%3D70.png,,,,,,,,,true,j,keypress(j),0.495,0.495,false,418476,418471.3000000715,416077.806,416407,416377.66,418594.102,,,
choice,canvas.Screen,0_8_39_2,2022-07-15T14:20:07.406Z,,,,0.495,,2,999.8679999999586,timeout,,,0.505,,0.505,,,-1,-25,,,,,,,,,,,0.495,false,419579.60000002384,419577.616,418577.617,418579.2000000477,418594.102,419593.97,75,,
ITI,canvas.Screen,0_8_39_3,2022-07-15T14:20:07.905Z,,,2533,,,2,500.0320000000065,timeout,,,0.505,,,,,,,,,,,,,,,,,0.495,false,420079.60000002384,420077.611,419577.616,419580.3000000715,419593.97,420094.002,,,
trial,flow.Sequence,0_8_39,2022-07-15T14:20:07.906Z,,,,,,2,4483.465999999957,completion,,,0.505,,,,,,,,,,,,,,,,,0.495,false,420080.5,420077.611,415577.828,415580.8000000715,415594.145,420094.002,,,
fixation,canvas.Screen,0_8_40_0,2022-07-15T14:20:08.405Z,,,,,,4,783.213000000047,timeout,,,0.53,,,,,,,,,,,,,,,,,0.51,false,420579.60000002384,420577.561,420077.611,420081,420094.002,420877.215,,,
stimulus,canvas.Screen,0_8_40_1,2022-07-15T14:20:10.562Z,,,,,,4,1854.3850000238162,response,,0.53,0.53,,,https://raw.githubusercontent.com/carero2/loss-perception/main/png/0.53blue1yellowb%3D1w%3D100v%3D10.png,https://raw.githubusercontent.com/carero2/loss-perception/main/png/0.51blue1yellowb%3D1w%3D100v%3D10.png,,,,,,,,,true,f,keypress(f),0.51,0.51,false,422736.40000009537,422731.60000002384,420577.561,420926.60000002384,420877.215,422843.868,,,
choice,canvas.Screen,0_8_40_2,2022-07-15T14:20:11.655Z,,,,0.53,,4,999.9099999999744,timeout,,,0.53,,0.51,,,6,-19,,,,,,,,,,,0.51,false,423828.8000000715,423827.233,422827.325,422829.10000002384,422843.868,423843.778,81,,
ITI,canvas.Screen,0_8_40_3,2022-07-15T14:20:12.155Z,,,2270,,,4,499.9770000000135,timeout,,,0.53,,,,,,,,,,,,,,,,,0.51,false,424329.40000009537,424327.361,423827.233,423829.40000009537,423843.778,424343.755,,,
trial,flow.Sequence,0_8_40,2022-07-15T14:20:12.156Z,,,,,,4,4233.358999999997,completion,,,0.53,,,,,,,,,,,,,,,,,0.51,false,424330.3000000715,424327.361,420077.611,420080.8000000715,420094.002,424343.755,,,
fixation,canvas.Screen,0_8_41_0,2022-07-15T14:20:12.655Z,,,,,,4,766.63400000002,timeout,,,0.49,,,,,,,,,,,,,,,,,0.47,false,424829.5,424827.334,424327.361,424330.8000000715,424343.755,425110.389,,,
stimulus,canvas.Screen,0_8_41_1,2022-07-15T14:20:14.322Z,,,,,,4,1382.1109999999753,response,,0.49,0.49,,,https://raw.githubusercontent.com/carero2/loss-perception/main/png/0.49blue1yellowb%3D1w%3D100v%3D31.png,https://raw.githubusercontent.com/carero2/loss-perception/main/png/0.47blue1yellowb%3D1w%3D100v%3D31.png,,,,,,,,,true,f,keypress(f),0.47,0.47,false,426495.90000009537,426492.5,424827.334,425167.40000009537,425110.389,426593.665,,,
choice,canvas.Screen,0_8_41_2,2022-07-15T14:20:15.405Z,,,,0.49,,4,1000.0080000000307,timeout,,,0.49,,0.47,,,-2,-21,,,,,,,,,,,0.47,false,427579.40000009537,427577.189,426577.046,426579.10000002384,426593.665,427593.673,79,,
ITI,canvas.Screen,0_8_41_3,2022-07-15T14:20:15.904Z,,,2899,,,4,499.86800000001676,timeout,,,0.49,,,,,,,,,,,,,,,,,0.47,false,428078.60000002384,428077.062,427577.189,427579.90000009537,427593.673,428093.541,,,
trial,flow.Sequence,0_8_41,2022-07-15T14:20:15.905Z,,,,,,4,3733.3069999999716,completion,,,0.49,,,,,,,,,,,,,,,,,0.47,false,428079.40000009537,428077.062,424327.361,424330.60000002384,424343.755,428093.541,,,
fixation,canvas.Screen,0_8_42_0,2022-07-15T14:20:16.405Z,,,,,,2,816.7949999999837,timeout,,,0.515,,,,,,,,,,,,,,,,,0.505,true,428579.10000002384,428577.138,428077.062,428079.90000009537,428093.541,428910.336,,,
stimulus,canvas.Screen,0_8_42_1,2022-07-15T14:20:18.392Z,,,,,,2,1647.1639999999898,response,,0.505,0.515,,,https://raw.githubusercontent.com/carero2/loss-perception/main/png/0.505blue1yellowb%3D1w%3D100v%3D88.png,https://raw.githubusercontent.com/carero2/loss-perception/main/png/0.515blue1yellowb%3D1w%3D100v%3D88.png,,,,,,,,,true,f,keypress(f),0.515,0.505,true,430566.10000002384,430557.5,428577.138,428954.90000009537,428910.336,430660.064,,,
choice,canvas.Screen,0_8_42_2,2022-07-15T14:20:19.471Z,,,,0.505,,2,999.9919999999693,timeout,,,0.515,,0.515,,,1,-20,,,,,,,,,,,0.505,true,431645.7000000477,431643.446,430643.555,430654,430660.064,431660.056,80,,
ITI,canvas.Screen,0_8_42_3,2022-07-15T14:20:19.971Z,,,2090,,,2,500.03899999998976,timeout,,,0.515,,,,,,,,,,,,,,,,,0.505,true,432145.7000000477,432143.6,431643.446,431646.5,431660.056,432160.095,,,
trial,flow.Sequence,0_8_42,2022-07-15T14:20:19.973Z,,,,,,2,4050.05899999995,completion,,,0.515,,,,,,,,,,,,,,,,,0.505,true,432146.8000000715,432143.6,428077.062,428079.8000000715,428093.541,432160.095,,,
fixation,canvas.Screen,0_8_43_0,2022-07-15T14:20:20.471Z,,,,,,2,799.8710000000428,timeout,,,0.495,,,,,,,,,,,,,,,,,0.485,false,432645.5,432643.582,432143.6,432147.3000000715,432160.095,432959.966,,,
stimulus,canvas.Screen,0_8_43_1,2022-07-15T14:20:23.785Z,,,,,,2,2989.634000023827,response,,0.495,0.495,,,https://raw.githubusercontent.com/carero2/loss-perception/main/png/0.495blue1yellowb%3D1w%3D100v%3D73.png,https://raw.githubusercontent.com/carero2/loss-perception/main/png/0.485blue1yellowb%3D1w%3D100v%3D73.png,,,,,,,,,true,f,keypress(f),0.485,0.485,false,435959.7000000477,435949.60000002384,432643.582,432991,432959.966,436059.64,,,
choice,canvas.Screen,0_8_43_2,2022-07-15T14:20:24.872Z,,,,0.495,,2,1000.0929999999935,timeout,,,0.495,,0.485,,,-1,-21,,,,,,,,,,,0.485,false,437045.90000009537,437043.23,436043.145,436053.40000009537,436059.64,437059.733,79,,
ITI,canvas.Screen,0_8_43_3,2022-07-15T14:20:25.371Z,,,2946,,,2,499.9569999999949,timeout,,,0.495,,,,,,,,,,,,,,,,,0.485,false,437545,437543.334,437043.23,437046.7000000477,437059.733,437559.69,,,
trial,flow.Sequence,0_8_43,2022-07-15T14:20:25.372Z,,,,,,2,5383.239000000001,completion,,,0.495,,,,,,,,,,,,,,,,,0.485,false,437545.7000000477,437543.334,432143.6,432147.2000000477,432160.095,437559.69,,,
fixation,canvas.Screen,0_8_44_0,2022-07-15T14:20:25.871Z,,,,,,6,850.0439999999944,timeout,,,0.545,,,,,,,,,,,,,,,,,0.515,false,438045,438043.274,437543.334,437546.3000000715,437559.69,438409.734,,,
stimulus,canvas.Screen,0_8_44_1,2022-07-15T14:20:32.039Z,,,,,,6,5799.766000000003,response,,0.545,0.545,,,https://raw.githubusercontent.com/carero2/loss-perception/main/png/0.545blue1yellowb%3D1w%3D100v%3D22.png,https://raw.githubusercontent.com/carero2/loss-perception/main/png/0.515blue1yellowb%3D1w%3D100v%3D22.png,,,,,,,,,true,j,keypress(j),0.515,0.515,false,444213.40000009537,444209.5,438043.274,438439.10000002384,438409.734,444326.006,,,
choice,canvas.Screen,0_8_44_2,2022-07-15T14:20:33.137Z,,,,0.515,,6,999.8969999999972,timeout,,,0.545,,0.545,,,3,-18,,,,,,,,,,,0.515,false,445310.8000000715,445309.254,444309.56,444313.2000000477,444326.006,445325.903,82,,
ITI,canvas.Screen,0_8_44_3,2022-07-15T14:20:33.637Z,,,2057,,,6,500.3620000000228,timeout,,,0.545,,,,,,,,,,,,,,,,,0.515,false,445811.10000002384,445809.313,445309.254,445311.3000000715,445325.903,445826.265,,,
trial,flow.Sequence,0_8_44,2022-07-15T14:20:33.638Z,,,,,,6,8249.623000000021,completion,,,0.545,,,,,,,,,,,,,,,,,0.515,false,445812.10000002384,445809.313,437543.334,437546.10000002384,437559.69,445826.265,,,
1st block,flow.Loop,0_8,2022-07-15T14:20:33.638Z,,,,,,,238752.18200000003,completion,,,,,,,,,,,,,,,,,,,,,,445812.60000002384,445809.313,207038.829,207046.5,207057.131,445826.265,,,
show amount,html.Screen,0_9,2022-07-15T14:20:46.130Z,,,,,,,12474.635000095353,response,,,,,,,,,,,,,,,,,Continue,click #Continue,,,,458304.5,458300.90000009537,445809.313,445816.60000002384,445826.265,458308.52,,,
second block,canvas.Screen,0_10,2022-07-15T14:20:50.285Z,,,,,,,4147.880000095349,response,,,,,,,,,,,,,,,,,space,keypress(Space),,,,462459.40000009537,462456.40000009537,458291.938,458304.7000000477,458308.52,462486.398,,,
fixation,canvas.Screen,0_11_0_0,2022-07-15T14:20:50.802Z,,,,,,2,771.9170000000158,timeout,,,0.515,,,,,,,,,,,,,,,,,0.505,false,462976.7000000477,462975.186,462441.934,462460.40000009537,462486.398,463258.315,,,
stimulus,canvas.Screen,0_11_0_1,2022-07-15T14:20:54.415Z,,,,,,2,3325.7850000238395,response,,0.515,0.515,,,https://raw.githubusercontent.com/carero2/loss-perception/main/png/0.515blue1yellowb%3D1w%3D100v%3D99.png,https://raw.githubusercontent.com/carero2/loss-perception/main/png/0.505blue1yellowb%3D1w%3D100v%3D99.png,,,,,,,,,true,j,keypress(j),0.505,0.505,false,466588.8000000715,466584.10000002384,462975.186,463304.90000009537,463258.315,466691.447,,,
choice,canvas.Screen,0_11_0_2,2022-07-15T14:20:55.502Z,,,,0.505,,2,999.9820000000182,timeout,,,0.515,,0.515,,,1,,1,,,,,,,,,,0.505,false,467676.5,467674.929,466675.128,466689.5,466691.447,467691.429,83,,
ITI,canvas.Screen,0_11_0_3,2022-07-15T14:20:56.003Z,,,2600,,,2,500.01500000001397,timeout,,,0.515,,,,,,,,,,,,,,,,,0.505,false,468176.90000009537,468175.004,467674.929,467677.10000002384,467691.429,468191.444,,,
trial,flow.Sequence,0_11_0,2022-07-15T14:20:56.004Z,,,,,,2,5688.606000000029,completion,,,0.515,,,,,,,,,,,,,,,,,0.505,false,468178,468175.004,462441.934,462460.2000000477,462486.398,468191.444,,,
fixation,canvas.Screen,0_11_1_0,2022-07-15T14:20:56.502Z,,,,,,2,583.2719999999972,timeout,,,0.495,,,,,,,,,,,,,,,,,0.485,true,468676.3000000715,468674.829,468175.004,468178.60000002384,468191.444,468774.716,,,
stimulus,canvas.Screen,0_11_1_1,2022-07-15T14:20:59.605Z,,,,,,2,2995.6840000953525,response,,0.485,0.495,,,https://raw.githubusercontent.com/carero2/loss-perception/main/png/0.485blue1yellowb%3D1w%3D100v%3D58.png,https://raw.githubusercontent.com/carero2/loss-perception/main/png/0.495blue1yellowb%3D1w%3D100v%3D58.png,,,,,,,,,true,j,keypress(j),0.495,0.485,true,471779.3000000715,471770.40000009537,468674.829,468757.90000009537,468774.716,471874.499,,,
choice,canvas.Screen,0_11_1_2,2022-07-15T14:21:00.687Z,,,,0.495,,2,999.9500000000116,timeout,,,0.495,,0.485,,,-1,,0,,,,,,,,,,0.485,true,472861.3000000715,472858.107,471858.259,471872,471874.499,472874.449,82,,
ITI,canvas.Screen,0_11_1_3,2022-07-15T14:21:01.186Z,,,2109,,,2,500.09799999999814,timeout,,,0.495,,,,,,,,,,,,,,,,,0.485,true,473360.2000000477,473358.064,472858.107,472862.10000002384,472874.449,473374.547,,,
trial,flow.Sequence,0_11_1,2022-07-15T14:21:01.187Z,,,,,,2,5166.619999999995,completion,,,0.495,,,,,,,,,,,,,,,,,0.485,true,473360.90000009537,473358.064,468175.004,468178.40000009537,468191.444,473374.547,,,
fixation,canvas.Screen,0_11_2_0,2022-07-15T14:21:01.686Z,,,,,,6,849.795999999973,timeout,,,0.485,,,,,,,,,,,,,,,,,0.455,true,473860,473858.037,473358.064,473361.5,473374.547,474224.343,,,
stimulus,canvas.Screen,0_11_2_1,2022-07-15T14:21:03.879Z,,,,,,6,1824.7570000238484,response,,0.455,0.485,,,https://raw.githubusercontent.com/carero2/loss-perception/main/png/0.455blue1yellowb%3D1w%3D100v%3D65.png,https://raw.githubusercontent.com/carero2/loss-perception/main/png/0.485blue1yellowb%3D1w%3D100v%3D65.png,,,,,,,,,true,f,keypress(f),0.485,0.455,true,476052.90000009537,476049.10000002384,473858.037,474266.5,474224.343,476157.524,,,
choice,canvas.Screen,0_11_2_2,2022-07-15T14:21:04.970Z,,,,0.455,,6,1000.0520000000251,timeout,,,0.485,,0.485,,,-9,,-9,,,,,,,,,,0.455,true,477144.3000000715,477141.115,476141.131,476141.3000000715,476157.524,477157.576,73,,
ITI,canvas.Screen,0_11_2_3,2022-07-15T14:21:05.469Z,,,2846,,,6,499.98399999999674,timeout,,,0.485,,,,,,,,,,,,,,,,,0.455,true,477643.2000000477,477641.163,477141.115,477145.10000002384,477157.576,477657.56,,,
trial,flow.Sequence,0_11_2,2022-07-15T14:21:05.470Z,,,,,,6,4266.61599999998,completion,,,0.485,,,,,,,,,,,,,,,,,0.455,true,477644,477641.163,473358.064,473361.3000000715,473374.547,477657.56,,,
fixation,canvas.Screen,0_11_3_0,2022-07-15T14:21:05.968Z,,,,,,4,766.5480000000098,timeout,,,0.53,,,,,,,,,,,,,,,,,0.51,false,478142.60000002384,478141.029,477641.163,477644.5,477657.56,478424.108,,,
stimulus,canvas.Screen,0_11_3_1,2022-07-15T14:21:07.930Z,,,,,,4,1675.0920000476763,response,,0.53,0.53,,,https://raw.githubusercontent.com/carero2/loss-perception/main/png/0.53blue1yellowb%3D1w%3D100v%3D89.png,https://raw.githubusercontent.com/carero2/loss-perception/main/png/0.51blue1yellowb%3D1w%3D100v%3D89.png,,,,,,,,,true,j,keypress(j),0.51,0.51,false,480104.2000000477,480099.2000000477,478141.029,478466.3000000715,478424.108,480224.017,,,
choice,canvas.Screen,0_11_3_2,2022-07-15T14:21:09.035Z,,,,0.51,,4,1000.0119999999879,timeout,,,0.53,,0.53,,,2,,-7,,,,,,,,,,0.51,false,481209.2000000477,481207.524,480207.652,480216.5,480224.017,481224.029,75,,
