sender,sender_type,sender_id,timestamp,meta,,ITI_value,choice,consent,diff_net_value,duration,ended_on,gain_color,left,left_side,loss_color,not_choice,picture_left,picture_right,points,points1Block,points2Block,points3Block,points4Block,points5Block,points6Block,pointsBlock,responded,response,response_action,right,right_side,switch_sides,time_commit,time_end,time_render,time_run,time_show,time_switch,totalPoints,totalPoints_practice,url
welcome,html.Screen,0_0,2022-07-15T14:21:54.554Z,"{""labjs_version"":""20.2.4"",""labjs_build"":{""flavor"":""production"",""commit"":""f5b4a49f956347addd546a832a3327688c2c0fef""},""location"":""https://run.pavlovia.org/Rey/loss-perception/"",""userAgent"":""Mozilla/5.0 (Windows NT 10.0; Win64; x64) AppleWebKit/537.36 (KHTML, like Gecko) Chrome/103.0.0.0 Safari/537.36"",""platform"":""Win32"",""language"":""en-GB"",""locale"":""en-GB"",""timeZone"":""Europe/London"",""timezoneOffset"":-60,""screen_width"":1280,""screen_height"":720,""scroll_width"":1280,""scroll_height"":569,""window_innerWidth"":1280,""window_innerHeight"":569,""devicePixelRatio"":1.5}",,,,,,4027.0190000029797,response,blue,,,yellow,,,,,0,0,0,0,0,0,0,,Continue,click #Continue,,,,19589.20000000298,19584.70000000298,15540.955,15554.90000000596,15557.681,19590.508,100,100,{}
consent,html.Form,0_1,2022-07-15T14:36:00.170Z,,,,,true,,845615.492,form submission,,,,,,,,,,,,,,,,,,,,,,865206.400000006,865206,19573.857,19589.60000000894,19590.508,865214.085,,,
ProlificID,html.Form,0_2,2022-07-15T14:36:05.382Z,,,,,,,5204.1150000030175,form submission,,,,,,,,,,,,,,,,,,,,,,870418.400000006,870418.200000003,865197.456,865206.6000000089,865214.085,870430.073,,,
instructions,html.Form,0_3,2022-07-15T14:41:36.100Z,,,,,,,330708.22699999704,form submission,,,,,,,,,,,,,,,,,,,,,,1201139.299999997,1201138.299999997,870413.369,870418.5,870430.073,1201161.548,,,
Practice,canvas.Screen,0_4,2022-07-15T14:41:38.657Z,,,,,,,2533.552000008989,response,,,,,,,,,,,,,,,,,space,keypress(Space),,,,1203696.200000003,1203695.100000009,1201128.49,1201139.5,1201161.548,1203711.275,,,
fixation,canvas.Screen,0_5_0_0,2022-07-15T14:41:39.157Z,,,,,,6,499.87100000004284,timeout,,,0.485,,,,,,,,,,,,,,,,,0.455,false,1204196.100000009,1204194.815,1203694.619,1203696.5,1203711.275,1204211.146,,,
stimulus,canvas.Screen,0_5_0_1,2022-07-15T14:41:40.940Z,,,,,,6,1764.7540000060108,response,,0.485,0.485,,,https://raw.githubusercontent.com/carero2/loss-perception/main/png/0.485blue1yellowb%3D1w%3D100v%3D24.png,https://raw.githubusercontent.com/carero2/loss-perception/main/png/0.455blue1yellowb%3D1w%3D100v%3D24.png,,,,,,,,,true,f,keypress(f),0.455,0.455,false,1205979.299999997,1205975.900000006,1204194.815,1204196.299999997,1204211.146,1205994.338,,,
choice,canvas.Screen,0_5_0_2,2022-07-15T14:41:42.940Z,,,,0.485,,6,1999.6480000000447,timeout,,,0.485,,0.455,,,-3,,,,,,,-3,,,,,0.455,false,1207979.200000003,1207977.353,1205977.915,1205983.799999997,1205994.338,1207993.986,,97,
timeout,canvas.Screen,0_5_0_3,2022-07-15T14:41:42.941Z,,,,,,6,NaN,skipped,,,0.485,,,,,,,,,,,,,,,,,0.455,false,1207980.900000006,1207977.353,,1207980.600000009,,1207993.986,,,
ITI,canvas.Screen,0_5_0_4,2022-07-15T14:41:43.439Z,,,,,,6,500.1959999999963,timeout,,,0.485,,,,,,,,,,,,,,,,,0.455,false,1208478.600000009,1208477.4,1207977.353,1207981.100000009,1207993.986,1208494.182,,,
trial,flow.Sequence,0_5_0,2022-07-15T14:41:43.440Z,,,,,,6,4766.125,completion,,,0.485,,,,,,,,,,,,,,,,,0.455,false,1208479.400000006,1208477.4,1203694.619,1203696.400000006,1203711.275,1208494.182,,,
fixation,canvas.Screen,0_5_1_0,2022-07-15T14:41:43.939Z,,,,,,6,500.125,timeout,,,0.545,,,,,,,,,,,,,,,,,0.515,false,1208978.299999997,1208977.465,1208477.4,1208479.700000003,1208494.182,1208994.307,,,
stimulus,canvas.Screen,0_5_1_1,2022-07-15T14:41:45.302Z,,,,,,6,1346.99299999699,response,,0.545,0.545,,,https://raw.githubusercontent.com/carero2/loss-perception/main/png/0.545blue1yellowb%3D1w%3D100v%3D95.png,https://raw.githubusercontent.com/carero2/loss-perception/main/png/0.515blue1yellowb%3D1w%3D100v%3D95.png,,,,,,,,,true,f,keypress(f),0.515,0.515,false,1210341.900000006,1210341.299999997,1208977.465,1208978.5,1208994.307,1210360.358,,,
choice,canvas.Screen,0_5_1_2,2022-07-15T14:41:47.305Z,,,,0.545,,6,1999.9459999999963,timeout,,,0.545,,0.515,,,9,,,,,,,6,,,,,0.515,false,1212344.700000003,1212343.595,1210343.617,1210352,1210360.358,1212360.304,,106,
timeout,canvas.Screen,0_5_1_3,2022-07-15T14:41:47.307Z,,,,,,6,NaN,skipped,,,0.545,,,,,,,,,,,,,,,,,0.515,false,1212346.799999997,1212343.595,,1212346.5,,1212360.304,,,
ITI,canvas.Screen,0_5_1_4,2022-07-15T14:41:47.805Z,,,,,,6,499.9169999998994,timeout,,,0.545,,,,,,,,,,,,,,,,,0.515,false,1212844.5,1212843.446,1212343.595,1212347,1212360.304,1212860.221,,,
trial,flow.Sequence,0_5_1,2022-07-15T14:41:47.806Z,,,,,,6,4349.2639999999665,completion,,,0.545,,,,,,,,,,,,,,,,,0.515,false,1212845,1212843.446,1208477.4,1208479.600000009,1208494.182,1212860.221,,,
fixation,canvas.Screen,0_5_2_0,2022-07-15T14:41:48.305Z,,,,,,9,500.1010000000242,timeout,,,0.485,,,,,,,,,,,,,,,,,0.53,true,1213344.299999997,1213343.43,1212843.446,1212845.200000003,1212860.221,1213360.322,,,
stimulus,canvas.Screen,0_5_2_1,2022-07-15T14:41:49.504Z,,,,,,9,1181.578000006033,response,,0.53,0.485,,,https://raw.githubusercontent.com/carero2/loss-perception/main/png/0.53blue1yellowb%3D1w%3D100v%3D99.png,https://raw.githubusercontent.com/carero2/loss-perception/main/png/0.485blue1yellowb%3D1w%3D100v%3D99.png,,,,,,,,,true,f,keypress(f),0.485,0.53,true,1214543.799999997,1214541.900000006,1213343.43,1213344.5,1213360.322,1214559.986,,,
choice,canvas.Screen,0_5_2_2,2022-07-15T14:41:51.505Z,,,,0.53,,9,1999.8659999999218,timeout,,,0.485,,0.485,,,6,,,,,,,12,,,,,0.53,true,1216544.100000009,1216543.231,1214543.048,1214546.799999997,1214559.986,1216559.852,,112,
timeout,canvas.Screen,0_5_2_3,2022-07-15T14:41:51.507Z,,,,,,9,NaN,skipped,,,0.485,,,,,,,,,,,,,,,,,0.53,true,1216546.200000003,1216543.231,,1216546,,1216559.852,,,
ITI,canvas.Screen,0_5_2_4,2022-07-15T14:41:52.005Z,,,,,,9,499.8549999999814,timeout,,,0.485,,,,,,,,,,,,,,,,,0.53,true,1217043.900000006,1217042.987,1216543.231,1216546.5,1216559.852,1217059.707,,,
trial,flow.Sequence,0_5_2,2022-07-15T14:41:52.005Z,,,,,,9,4182.7660000000615,completion,,,0.485,,,,,,,,,,,,,,,,,0.53,true,1217044.200000003,1217042.987,1212843.446,1212845.100000009,1212860.221,1217059.707,,,
fixation,canvas.Screen,0_5_3_0,2022-07-15T14:41:52.504Z,,,,,,18,500.00900000007823,timeout,,,0.545,,,,,,,,,,,,,,,,,0.455,false,1217543.799999997,1217542.925,1217042.987,1217044.400000006,1217059.707,1217559.716,,,
stimulus,canvas.Screen,0_5_3_1,2022-07-15T14:41:53.500Z,,,,,,18,979.0839999970049,response,,0.545,0.545,,,https://raw.githubusercontent.com/carero2/loss-perception/main/png/0.545blue1yellowb%3D1w%3D100v%3D38.png,https://raw.githubusercontent.com/carero2/loss-perception/main/png/0.455blue1yellowb%3D1w%3D100v%3D38.png,,,,,,,,,true,f,keypress(f),0.455,0.455,false,1218539.799999997,1218538.799999997,1217542.925,1217544.100000009,1217559.716,1218566.444,,,
choice,canvas.Screen,0_5_3_2,2022-07-15T14:41:55.504Z,,,,0.545,,18,1992.6220000002068,timeout,,,0.545,,0.455,,,9,,,,,,,21,,,,,0.455,false,1220543.299999997,1220542.621,1218526.366,1218542,1218566.444,1220559.066,,121,
timeout,canvas.Screen,0_5_3_3,2022-07-15T14:41:55.505Z,,,,,,18,NaN,skipped,,,0.545,,,,,,,,,,,,,,,,,0.455,false,1220544.799999997,1220542.621,,1220544.600000009,,1220559.066,,,
ITI,canvas.Screen,0_5_3_4,2022-07-15T14:41:56.004Z,,,,,,18,500.22099999990314,timeout,,,0.545,,,,,,,,,,,,,,,,,0.455,false,1221043.299999997,1221042.387,1220542.621,1220545,1220559.066,1221059.287,,,
trial,flow.Sequence,0_5_3,2022-07-15T14:41:56.004Z,,,,,,18,3982.6800000001676,completion,,,0.545,,,,,,,,,,,,,,,,,0.455,false,1221043.5,1221042.387,1217042.987,1217044.299999997,1217059.707,1221059.287,,,
fixation,canvas.Screen,0_5_4_0,2022-07-15T14:41:56.504Z,,,,,,6,499.91599999996834,timeout,,,0.515,,,,,,,,,,,,,,,,,0.485,true,1221543.200000003,1221542.262,1221042.387,1221043.600000009,1221059.287,1221559.203,,,
stimulus,canvas.Screen,0_5_4_1,2022-07-15T14:41:59.504Z,,,,,,6,2999.307999999961,timeout,,0.485,0.515,,,https://raw.githubusercontent.com/carero2/loss-perception/main/png/0.485blue1yellowb%3D1w%3D100v%3D84.png,https://raw.githubusercontent.com/carero2/loss-perception/main/png/0.515blue1yellowb%3D1w%3D100v%3D84.png,,,,,,,,,,,,0.515,0.485,true,1224543.299999997,1224542.176,1221542.262,1221543.400000006,1221559.203,1224558.511,,,
choice,canvas.Screen,0_5_4_2,2022-07-15T14:41:59.509Z,,,,0,,6,NaN,skipped,,,0.515,,0,,,0,,,,,,,21,false,timeout,,,0.485,true,1224548.600000009,1224542.176,,1224548.299999997,,1224558.511,,121,
timeout,canvas.Screen,0_5_4_3,2022-07-15T14:42:01.503Z,,,,,,6,2000.091000000015,timeout,,,0.515,,,,,,,,,,,,,,,,,0.485,true,1226542.799999997,1226541.638,1224542.176,1224548.900000006,1224558.511,1226558.602,,,
ITI,canvas.Screen,0_5_4_4,2022-07-15T14:42:02.003Z,,,,,,6,499.84799999999814,timeout,,,0.515,,,,,,,,,,,,,,,,,0.485,true,1227042.299999997,1227041.789,1226541.638,1226543.100000009,1226558.602,1227058.45,,,
trial,flow.Sequence,0_5_4,2022-07-15T14:42:02.003Z,,,,,,6,5982.502000000095,completion,,,0.515,,,,,,,,,,,,,,,,,0.485,true,1227042.5,1227041.789,1221042.387,1221043.600000009,1221059.287,1227058.45,,,
fixation,canvas.Screen,0_5_5_0,2022-07-15T14:42:02.503Z,,,,,,12,499.66700000013225,timeout,,,0.53,,,,,,,,,,,,,,,,,0.47,true,1227542.5,1227541.768,1227041.789,1227042.5,1227058.45,1227558.117,,,
stimulus,canvas.Screen,0_5_5_1,2022-07-15T14:42:03.333Z,,,,,,12,813.1829999969341,response,,0.47,0.53,,,https://raw.githubusercontent.com/carero2/loss-perception/main/png/0.47blue1yellowb%3D1w%3D100v%3D61.png,https://raw.githubusercontent.com/carero2/loss-perception/main/png/0.53blue1yellowb%3D1w%3D100v%3D61.png,,,,,,,,,true,j,keypress(j),0.53,0.47,true,1228372.299999997,1228371.299999997,1227541.768,1227542.700000003,1227558.117,1228391.419,,,
choice,canvas.Screen,0_5_5_2,2022-07-15T14:42:05.335Z,,,,0.53,,12,1999.652999999933,timeout,,,0.53,,0.47,,,6,,,,,,,27,,,,,0.47,true,1230374.700000003,1230374.4,1228374.857,1228375.200000003,1228391.419,1230391.072,,127,
timeout,canvas.Screen,0_5_5_3,2022-07-15T14:42:05.336Z,,,,,,12,NaN,skipped,,,0.53,,,,,,,,,,,,,,,,,0.47,true,1230375.799999997,1230374.4,,1230375.799999997,,1230391.072,,,
ITI,canvas.Screen,0_5_5_4,2022-07-15T14:42:05.835Z,,,,,,12,499.95200000004843,timeout,,,0.53,,,,,,,,,,,,,,,,,0.47,true,1230874.700000003,1230874.382,1230374.4,1230375.900000006,1230391.072,1230891.024,,,
trial,flow.Sequence,0_5_5,2022-07-15T14:42:05.835Z,,,,,,12,3815.93200000003,completion,,,0.53,,,,,,,,,,,,,,,,,0.47,true,1230874.900000006,1230874.382,1227041.789,1227042.5,1227058.45,1230891.024,,,
fixation,canvas.Screen,0_5_6_0,2022-07-15T14:42:06.335Z,,,,,,9,499.9290000000037,timeout,,,0.485,,,,,,,,,,,,,,,,,0.53,false,1231374.700000003,1231374.295,1230874.382,1230875,1230891.024,1231390.953,,,
stimulus,canvas.Screen,0_5_6_1,2022-07-15T14:42:07.070Z,,,,,,9,717.1470000089612,response,,0.485,0.485,,,https://raw.githubusercontent.com/carero2/loss-perception/main/png/0.485blue1yellowb%3D1w%3D100v%3D8.png,https://raw.githubusercontent.com/carero2/loss-perception/main/png/0.53blue1yellowb%3D1w%3D100v%3D8.png,,,,,,,,,true,j,keypress(j),0.53,0.53,false,1232109,1232108.100000009,1231374.295,1231374.799999997,1231390.953,1232124.223,,,
choice,canvas.Screen,0_5_6_2,2022-07-15T14:42:09.069Z,,,,0.53,,9,1999.7360000000335,timeout,,,0.485,,0.485,,,6,,,,,,,33,,,,,0.53,false,1234108.299999997,1234107.324,1232107.467,1232113.299999997,1232124.223,1234123.959,,133,
timeout,canvas.Screen,0_5_6_3,2022-07-15T14:42:09.071Z,,,,,,9,NaN,skipped,,,0.485,,,,,,,,,,,,,,,,,0.53,false,1234110.299999997,1234107.324,,1234110.100000009,,1234123.959,,,
ITI,canvas.Screen,0_5_6_4,2022-07-15T14:42:09.569Z,,,,,,9,500.1689999999944,timeout,,,0.485,,,,,,,,,,,,,,,,,0.53,false,1234608.5,1234607.548,1234107.324,1234110.5,1234123.959,1234624.128,,,
trial,flow.Sequence,0_5_6,2022-07-15T14:42:09.569Z,,,,,,9,3716.523999999976,completion,,,0.485,,,,,,,,,,,,,,,,,0.53,false,1234608.799999997,1234607.548,1230874.382,1230875,1230891.024,1234624.128,,,
fixation,canvas.Screen,0_5_7_0,2022-07-15T14:42:10.069Z,,,,,,12,499.7029999999795,timeout,,,0.53,,,,,,,,,,,,,,,,,0.47,true,1235108,1235107.248,1234607.548,1234609,1234624.128,1235123.831,,,
stimulus,canvas.Screen,0_5_7_1,2022-07-15T14:42:10.703Z,,,,,,12,616.8690000029746,response,,0.47,0.53,,,https://raw.githubusercontent.com/carero2/loss-perception/main/png/0.47blue1yellowb%3D1w%3D100v%3D84.png,https://raw.githubusercontent.com/carero2/loss-perception/main/png/0.53blue1yellowb%3D1w%3D100v%3D84.png,,,,,,,,,true,j,keypress(j),0.53,0.47,true,1235742.700000003,1235740.700000003,1235107.248,1235108.5,1235123.831,1235757.84,,,
choice,canvas.Screen,0_5_7_2,2022-07-15T14:42:12.702Z,,,,0.53,,12,1999.4129999999423,timeout,,,0.53,,0.47,,,6,,,,,,,39,,,,,0.47,true,1237741.299999997,1237740.231,1235740.824,1235746.400000006,1235757.84,1237757.253,,139,
timeout,canvas.Screen,0_5_7_3,2022-07-15T14:42:12.704Z,,,,,,12,NaN,skipped,,,0.53,,,,,,,,,,,,,,,,,0.47,true,1237743.5,1237740.231,,1237743.299999997,,1237757.253,,,
ITI,canvas.Screen,0_5_7_4,2022-07-15T14:42:13.202Z,,,,,,12,499.6950000000652,timeout,,,0.53,,,,,,,,,,,,,,,,,0.47,true,1238241.299999997,1238240.408,1237740.231,1237743.600000009,1237757.253,1238256.948,,,
trial,flow.Sequence,0_5_7,2022-07-15T14:42:13.202Z,,,,,,12,3616.280000000028,completion,,,0.53,,,,,,,,,,,,,,,,,0.47,true,1238241.799999997,1238240.408,1234607.548,1234609,1234624.128,1238256.948,,,
fixation,canvas.Screen,0_5_8_0,2022-07-15T14:42:13.702Z,,,,,,6,499.85599999991246,timeout,,,0.485,,,,,,,,,,,,,,,,,0.455,true,1238741.299999997,1238740.218,1238240.408,1238241.900000006,1238256.948,1238756.804,,,
stimulus,canvas.Screen,0_5_8_1,2022-07-15T14:42:14.270Z,,,,,,6,550.796000008937,response,,0.455,0.485,,,https://raw.githubusercontent.com/carero2/loss-perception/main/png/0.455blue1yellowb%3D1w%3D100v%3D89.png,https://raw.githubusercontent.com/carero2/loss-perception/main/png/0.485blue1yellowb%3D1w%3D100v%3D89.png,,,,,,,,,true,j,keypress(j),0.485,0.455,true,1239309.600000009,1239307.600000009,1238740.218,1238741.600000009,1238756.804,1239323.505,,,
choice,canvas.Screen,0_5_8_2,2022-07-15T14:42:16.268Z,,,,0.485,,6,1999.4900000002235,timeout,,,0.485,,0.455,,,-3,,,,,,,36,,,,,0.455,true,1241307,1241306.33,1239306.722,1239313,1239323.505,1241322.995,,136,
timeout,canvas.Screen,0_5_8_3,2022-07-15T14:42:16.269Z,,,,,,6,NaN,skipped,,,0.485,,,,,,,,,,,,,,,,,0.455,true,1241308.299999997,1241306.33,,1241308.100000009,,1241322.995,,,
ITI,canvas.Screen,0_5_8_4,2022-07-15T14:42:16.768Z,,,,,,6,500.8269999998156,timeout,,,0.485,,,,,,,,,,,,,,,,,0.455,true,1241807.299999997,1241806.373,1241306.33,1241308.400000006,1241322.995,1241823.822,,,
trial,flow.Sequence,0_5_8,2022-07-15T14:42:16.768Z,,,,,,6,3549.4249999998137,completion,,,0.485,,,,,,,,,,,,,,,,,0.455,true,1241807.600000009,1241806.373,1238240.408,1238241.900000006,1238256.948,1241823.822,,,
fixation,canvas.Screen,0_5_9_0,2022-07-15T14:42:17.268Z,,,,,,6,499.2960000000894,timeout,,,0.515,,,,,,,,,,,,,,,,,0.485,true,1242307.400000006,1242306.348,1241806.373,1241807.799999997,1241823.822,1242323.118,,,
stimulus,canvas.Screen,0_5_9_1,2022-07-15T14:42:17.899Z,,,,,,6,614.5820000029635,response,,0.485,0.515,,,https://raw.githubusercontent.com/carero2/loss-perception/main/png/0.485blue1yellowb%3D1w%3D100v%3D14.png,https://raw.githubusercontent.com/carero2/loss-perception/main/png/0.515blue1yellowb%3D1w%3D100v%3D14.png,,,,,,,,,true,j,keypress(j),0.515,0.485,true,1242938.299999997,1242937.700000003,1242306.348,1242307.700000003,1242323.118,1242956.126,,,
choice,canvas.Screen,0_5_9_2,2022-07-15T14:42:19.901Z,,,,0.515,,6,1999.9960000000428,timeout,,,0.515,,0.485,,,3,,,,,,,39,,,,,0.485,true,1244940.100000009,1244939.284,1242939.875,1242940.100000009,1242956.126,1244956.122,,139,
timeout,canvas.Screen,0_5_9_3,2022-07-15T14:42:19.903Z,,,,,,6,NaN,skipped,,,0.515,,,,,,,,,,,,,,,,,0.485,true,1244942.200000003,1244939.284,,1244942,,1244956.122,,,
ITI,canvas.Screen,0_5_9_4,2022-07-15T14:42:20.401Z,,,,,,6,499.87300000013784,timeout,,,0.515,,,,,,,,,,,,,,,,,0.485,true,1245440.400000006,1245439.472,1244939.284,1244942.400000006,1244956.122,1245455.995,,,
trial,flow.Sequence,0_5_9,2022-07-15T14:42:20.401Z,,,,,,6,3615.6500000001397,completion,,,0.515,,,,,,,,,,,,,,,,,0.485,true,1245440.600000009,1245439.472,1241806.373,1241807.700000003,1241823.822,1245455.995,,,
fixation,canvas.Screen,0_5_10_0,2022-07-15T14:42:20.901Z,,,,,,18,499.99299999978393,timeout,,,0.545,,,,,,,,,,,,,,,,,0.455,true,1245940,1245939.121,1245439.472,1245440.799999997,1245455.995,1245955.988,,,
stimulus,canvas.Screen,0_5_10_1,2022-07-15T14:42:21.420Z,,,,,,18,502.4120000060648,response,,0.455,0.545,,,https://raw.githubusercontent.com/carero2/loss-perception/main/png/0.455blue1yellowb%3D1w%3D100v%3D56.png,https://raw.githubusercontent.com/carero2/loss-perception/main/png/0.545blue1yellowb%3D1w%3D100v%3D56.png,,,,,,,,,true,j,keypress(j),0.545,0.455,true,1246459.5,1246458.400000006,1245939.121,1245940.200000003,1245955.988,1246472.339,,,
choice,canvas.Screen,0_5_10_2,2022-07-15T14:42:23.418Z,,,,0.545,,18,1999.7890000001062,timeout,,,0.545,,0.455,,,9,,,,,,,48,,,,,0.455,true,1248456.799999997,1248455.676,1246455.833,1246461.799999997,1246472.339,1248472.128,,148,
timeout,canvas.Screen,0_5_10_3,2022-07-15T14:42:23.420Z,,,,,,18,NaN,skipped,,,0.545,,,,,,,,,,,,,,,,,0.455,true,1248458.900000006,1248455.676,,1248458.600000009,,1248472.128,,,
ITI,canvas.Screen,0_5_10_4,2022-07-15T14:42:23.917Z,,,,,,18,499.9210000000894,timeout,,,0.545,,,,,,,,,,,,,,,,,0.455,true,1248956.299999997,1248955.412,1248455.676,1248459.100000009,1248472.128,1248972.049,,,
trial,flow.Sequence,0_5_10,2022-07-15T14:42:23.917Z,,,,,,18,3499.4169999998994,completion,,,0.545,,,,,,,,,,,,,,,,,0.455,true,1248956.700000003,1248955.412,1245439.472,1245440.799999997,1245455.995,1248972.049,,,
fixation,canvas.Screen,0_5_11_0,2022-07-15T14:42:24.417Z,,,,,,6,499.8959999999497,timeout,,,0.545,,,,,,,,,,,,,,,,,0.515,false,1249456.200000003,1249455.453,1248955.412,1248956.799999997,1248972.049,1249471.945,,,
stimulus,canvas.Screen,0_5_11_1,2022-07-15T14:42:25.360Z,,,,,,6,926.1550000088755,response,,0.545,0.545,,,https://raw.githubusercontent.com/carero2/loss-perception/main/png/0.545blue1yellowb%3D1w%3D100v%3D48.png,https://raw.githubusercontent.com/carero2/loss-perception/main/png/0.515blue1yellowb%3D1w%3D100v%3D48.png,,,,,,,,,true,f,keypress(f),0.515,0.515,false,1250398.799999997,1250398.100000009,1249455.453,1249456.400000006,1249471.945,1250405.149,,,
choice,canvas.Screen,0_5_11_2,2022-07-15T14:42:27.350Z,,,,0.545,,6,1999.8950000000186,timeout,,,0.545,,0.515,,,9,,,,,,,57,,,,,0.515,false,1252389.600000009,1252388.597,1250388.507,1250400.700000003,1250405.149,1252405.044,,157,
timeout,canvas.Screen,0_5_11_3,2022-07-15T14:42:27.352Z,,,,,,6,NaN,skipped,,,0.545,,,,,,,,,,,,,,,,,0.515,false,1252391.400000006,1252388.597,,1252391.200000003,,1252405.044,,,
ITI,canvas.Screen,0_5_11_4,2022-07-15T14:42:27.851Z,,,,,,6,499.9860000000335,timeout,,,0.545,,,,,,,,,,,,,,,,,0.515,false,1252890.400000006,1252888.201,1252388.597,1252391.600000009,1252405.044,1252905.03,,,
trial,flow.Sequence,0_5_11,2022-07-15T14:42:27.851Z,,,,,,6,3916.151999999769,completion,,,0.545,,,,,,,,,,,,,,,,,0.515,false,1252890.700000003,1252888.201,1248955.412,1248956.799999997,1248972.049,1252905.03,,,
fixation,canvas.Screen,0_5_12_0,2022-07-15T14:42:28.350Z,,,,,,18,500.122999999905,timeout,,,0.545,,,,,,,,,,,,,,,,,0.455,false,1253389.200000003,1253388.243,1252888.201,1252890.900000006,1252905.03,1253405.153,,,
stimulus,canvas.Screen,0_5_12_1,2022-07-15T14:42:28.881Z,,,,,,18,513.4470000090078,response,,0.545,0.545,,,https://raw.githubusercontent.com/carero2/loss-perception/main/png/0.545blue1yellowb%3D1w%3D100v%3D85.png,https://raw.githubusercontent.com/carero2/loss-perception/main/png/0.455blue1yellowb%3D1w%3D100v%3D85.png,,,,,,,,,true,f,keypress(f),0.455,0.455,false,1253920.299999997,1253918.600000009,1253388.243,1253389.600000009,1253405.153,1253938.299,,,
choice,canvas.Screen,0_5_12_2,2022-07-15T14:42:30.883Z,,,,0.545,,18,2000.150999999838,timeout,,,0.545,,0.455,,,9,,,,,,,66,,,,,0.455,false,1255922.200000003,1255921.228,1253921.67,1253922.400000006,1253938.299,1255938.45,,166,
timeout,canvas.Screen,0_5_12_3,2022-07-15T14:42:30.886Z,,,,,,18,NaN,skipped,,,0.545,,,,,,,,,,,,,,,,,0.455,false,1255925.600000009,1255921.228,,1255925.400000006,,1255938.45,,,
ITI,canvas.Screen,0_5_12_4,2022-07-15T14:42:31.383Z,,,,,,18,499.7080000001006,timeout,,,0.545,,,,,,,,,,,,,,,,,0.455,false,1256422.299999997,1256421.357,1255921.228,1255925.900000006,1255938.45,1256438.158,,,
trial,flow.Sequence,0_5_12,2022-07-15T14:42:31.383Z,,,,,,18,3516.3270000000484,completion,,,0.545,,,,,,,,,,,,,,,,,0.455,false,1256422.700000003,1256421.357,1252888.201,1252890.900000006,1252905.03,1256438.158,,,
fixation,canvas.Screen,0_5_13_0,2022-07-15T14:42:31.883Z,,,,,,6,499.5130000000354,timeout,,,0.545,,,,,,,,,,,,,,,,,0.515,true,1256921.900000006,1256921.028,1256421.357,1256422.799999997,1256438.158,1256937.671,,,
stimulus,canvas.Screen,0_5_13_1,2022-07-15T14:42:32.929Z,,,,,,6,1029.3289999999106,response,,0.515,0.545,,,https://raw.githubusercontent.com/carero2/loss-perception/main/png/0.515blue1yellowb%3D1w%3D100v%3D20.png,https://raw.githubusercontent.com/carero2/loss-perception/main/png/0.545blue1yellowb%3D1w%3D100v%3D20.png,,,,,,,,,true,j,keypress(j),0.545,0.515,true,1257968,1257967,1256921.028,1256922.200000003,1256937.671,1257995.612,,,
choice,canvas.Screen,0_5_13_2,2022-07-15T14:42:34.949Z,,,,0.545,,6,2008.5150000001304,timeout,,,0.545,,0.515,,,9,,,,,,,75,,,,,0.515,true,1259988,1259987.269,1257954.602,1257970.5,1257995.612,1260004.127,,175,
timeout,canvas.Screen,0_5_13_3,2022-07-15T14:42:34.951Z,,,,,,6,NaN,skipped,,,0.545,,,,,,,,,,,,,,,,,0.515,true,1259989.700000003,1259987.269,,1259989.600000009,,1260004.127,,,
ITI,canvas.Screen,0_5_13_4,2022-07-15T14:42:35.450Z,,,,,,6,500.0109999999404,timeout,,,0.545,,,,,,,,,,,,,,,,,0.515,true,1260489.600000009,1260487.257,1259987.269,1259989.799999997,1260004.127,1260504.138,,,
trial,flow.Sequence,0_5_13,2022-07-15T14:42:35.451Z,,,,,,6,4049.098999999929,completion,,,0.545,,,,,,,,,,,,,,,,,0.515,true,1260490.299999997,1260487.257,1256421.357,1256422.799999997,1256438.158,1260504.138,,,
fixation,canvas.Screen,0_5_14_0,2022-07-15T14:42:35.950Z,,,,,,9,499.64999999990687,timeout,,,0.485,,,,,,,,,,,,,,,,,0.53,false,1260989.100000009,1260987.124,1260487.257,1260490.5,1260504.138,1261003.788,,,
stimulus,canvas.Screen,0_5_14_1,2022-07-15T14:42:36.657Z,,,,,,9,690.3120000089984,response,,0.485,0.485,,,https://raw.githubusercontent.com/carero2/loss-perception/main/png/0.485blue1yellowb%3D1w%3D100v%3D32.png,https://raw.githubusercontent.com/carero2/loss-perception/main/png/0.53blue1yellowb%3D1w%3D100v%3D32.png,,,,,,,,,true,j,keypress(j),0.53,0.53,false,1261696.200000003,1261694.100000009,1260987.124,1260989.299999997,1261003.788,1261704.185,,,
choice,canvas.Screen,0_5_14_2,2022-07-15T14:42:38.649Z,,,,0.53,,9,1999.3199999998324,timeout,,,0.485,,0.485,,,6,,,,,,,81,,,,,0.53,false,1263688,1263686.831,1261686.857,1261699.600000009,1261704.185,1263703.505,,181,
timeout,canvas.Screen,0_5_14_3,2022-07-15T14:42:38.651Z,,,,,,9,NaN,skipped,,,0.485,,,,,,,,,,,,,,,,,0.53,false,1263690.100000009,1263686.831,,1263689.799999997,,1263703.505,,,
ITI,canvas.Screen,0_5_14_4,2022-07-15T14:42:39.149Z,,,,,,9,500.24600000004284,timeout,,,0.485,,,,,,,,,,,,,,,,,0.53,false,1264187.700000003,1264186.769,1263686.831,1263690.299999997,1263703.505,1264203.751,,,
trial,flow.Sequence,0_5_14,2022-07-15T14:42:39.149Z,,,,,,9,3682.631000000052,completion,,,0.485,,,,,,,,,,,,,,,,,0.53,false,1264188,1264186.769,1260487.257,1260490.400000006,1260504.138,1264203.751,,,
fixation,canvas.Screen,0_5_15_0,2022-07-15T14:42:39.648Z,,,,,,6,499.65200000000186,timeout,,,0.515,,,,,,,,,,,,,,,,,0.485,true,1264687.700000003,1264686.889,1264186.769,1264188.200000003,1264203.751,1264703.403,,,
stimulus,canvas.Screen,0_5_15_1,2022-07-15T14:42:40.579Z,,,,,,6,914.1970000090078,response,,0.485,0.515,,,https://raw.githubusercontent.com/carero2/loss-perception/main/png/0.485blue1yellowb%3D1w%3D100v%3D100.png,https://raw.githubusercontent.com/carero2/loss-perception/main/png/0.515blue1yellowb%3D1w%3D100v%3D100.png,,,,,,,,,true,j,keypress(j),0.515,0.485,true,1265618.400000006,1265617.600000009,1264686.889,1264687.900000006,1264703.403,1265645.243,,,
choice,canvas.Screen,0_5_15_2,2022-07-15T14:42:42.598Z,,,,0.515,,6,2007.7669999999925,timeout,,,0.515,,0.485,,,3,,,,,,,84,,,,,0.485,true,1267637.200000003,1267636.329,1265603.144,1265619.200000003,1265645.243,1267653.01,,184,
timeout,canvas.Screen,0_5_15_3,2022-07-15T14:42:42.600Z,,,,,,6,NaN,skipped,,,0.515,,,,,,,,,,,,,,,,,0.485,true,1267639.299999997,1267636.329,,1267639,,1267653.01,,,
ITI,canvas.Screen,0_5_15_4,2022-07-15T14:42:43.098Z,,,,,,6,499.90200000000186,timeout,,,0.515,,,,,,,,,,,,,,,,,0.485,true,1268137.200000003,1268136.321,1267636.329,1267639.5,1267653.01,1268152.912,,,
trial,flow.Sequence,0_5_15,2022-07-15T14:42:43.098Z,,,,,,6,3932.570000000065,completion,,,0.515,,,,,,,,,,,,,,,,,0.485,true,1268137.600000009,1268136.321,1264186.769,1264188.100000009,1264203.751,1268152.912,,,
fixation,canvas.Screen,0_5_16_0,2022-07-15T14:42:43.598Z,,,,,,12,499.8870000001043,timeout,,,0.53,,,,,,,,,,,,,,,,,0.47,false,1268637.200000003,1268636.533,1268136.321,1268137.799999997,1268152.912,1268652.799,,,
stimulus,canvas.Screen,0_5_16_1,2022-07-15T14:42:44.169Z,,,,,,12,554.4010000028647,response,,0.53,0.53,,,https://raw.githubusercontent.com/carero2/loss-perception/main/png/0.53blue1yellowb%3D1w%3D100v%3D13.png,https://raw.githubusercontent.com/carero2/loss-perception/main/png/0.47blue1yellowb%3D1w%3D100v%3D13.png,,,,,,,,,true,f,keypress(f),0.47,0.47,false,1269208.299999997,1269207.200000003,1268636.533,1268637.299999997,1268652.799,1269219.636,,,
choice,canvas.Screen,0_5_16_2,2022-07-15T14:42:46.164Z,,,,0.53,,12,1999.472000000067,timeout,,,0.53,,0.47,,,6,,,,,,,90,,,,,0.47,false,1271202.799999997,1271202.452,1269202.896,1269210.600000009,1269219.636,1271219.108,,190,
timeout,canvas.Screen,0_5_16_3,2022-07-15T14:42:46.165Z,,,,,,12,NaN,skipped,,,0.53,,,,,,,,,,,,,,,,,0.47,false,1271204.400000006,1271202.452,,1271204,,1271219.108,,,
ITI,canvas.Screen,0_5_16_4,2022-07-15T14:42:46.664Z,,,,,,12,499.96099999989383,timeout,,,0.53,,,,,,,,,,,,,,,,,0.47,false,1271702.900000006,1271702.409,1271202.452,1271204.5,1271219.108,1271719.069,,,
trial,flow.Sequence,0_5_16,2022-07-15T14:42:46.664Z,,,,,,12,3549.496999999974,completion,,,0.53,,,,,,,,,,,,,,,,,0.47,false,1271703.200000003,1271702.409,1268136.321,1268137.700000003,1268152.912,1271719.069,,,
fixation,canvas.Screen,0_5_17_0,2022-07-15T14:42:47.164Z,,,,,,6,499.94100000010803,timeout,,,0.485,,,,,,,,,,,,,,,,,0.455,true,1272203.5,1272202.756,1271702.409,1271703.400000006,1271719.069,1272219.01,,,
stimulus,canvas.Screen,0_5_17_1,2022-07-15T14:42:48.585Z,,,,,,6,1403.690000002971,response,,0.455,0.485,,,https://raw.githubusercontent.com/carero2/loss-perception/main/png/0.455blue1yellowb%3D1w%3D100v%3D40.png,https://raw.githubusercontent.com/carero2/loss-perception/main/png/0.485blue1yellowb%3D1w%3D100v%3D40.png,,,,,,,,,true,j,keypress(j),0.485,0.455,true,1273623.900000006,1273622.700000003,1272202.756,1272203.900000006,1272219.01,1273635.476,,,
choice,canvas.Screen,0_5_17_2,2022-07-15T14:42:50.581Z,,,,0.485,,6,2000.125,timeout,,,0.485,,0.455,,,-3,,,,,,,87,,,,,0.455,true,1275619.900000006,1275618.696,1273618.571,1273627.100000009,1273635.476,1275635.601,,187,
timeout,canvas.Screen,0_5_17_3,2022-07-15T14:42:50.583Z,,,,,,6,NaN,skipped,,,0.485,,,,,,,,,,,,,,,,,0.455,true,1275622,1275618.696,,1275621.700000003,,1275635.601,,,
ITI,canvas.Screen,0_5_17_4,2022-07-15T14:42:51.080Z,,,,,,6,499.79899999988265,timeout,,,0.485,,,,,,,,,,,,,,,,,0.455,true,1276119.400000006,1276118.596,1275618.696,1275622.200000003,1275635.601,1276135.4,,,
trial,flow.Sequence,0_5_17,2022-07-15T14:42:51.081Z,,,,,,6,4399.527000000002,completion,,,0.485,,,,,,,,,,,,,,,,,0.455,true,1276119.799999997,1276118.596,1271702.409,1271703.299999997,1271719.069,1276135.4,,,
fixation,canvas.Screen,0_5_18_0,2022-07-15T14:42:51.580Z,,,,,,6,499.94000000017695,timeout,,,0.545,,,,,,,,,,,,,,,,,0.515,true,1276619.400000006,1276618.621,1276118.596,1276120,1276135.4,1276635.34,,,
stimulus,canvas.Screen,0_5_18_1,2022-07-15T14:42:52.850Z,,,,,,6,1251.7600000088569,response,,0.515,0.545,,,https://raw.githubusercontent.com/carero2/loss-perception/main/png/0.515blue1yellowb%3D1w%3D100v%3D11.png,https://raw.githubusercontent.com/carero2/loss-perception/main/png/0.545blue1yellowb%3D1w%3D100v%3D11.png,,,,,,,,,true,j,keypress(j),0.545,0.515,true,1277889.200000003,1277887.100000009,1276618.621,1276619.700000003,1276635.34,1277901.584,,,
choice,canvas.Screen,0_5_18_2,2022-07-15T14:42:54.846Z,,,,0.545,,6,1999.8219999999274,timeout,,,0.545,,0.515,,,9,,,,,,,96,,,,,0.515,true,1279885.400000006,1279884.732,1277884.885,1277893,1277901.584,1279901.406,,196,
timeout,canvas.Screen,0_5_18_3,2022-07-15T14:42:54.848Z,,,,,,6,NaN,skipped,,,0.545,,,,,,,,,,,,,,,,,0.515,true,1279887.5,1279884.732,,1279887.299999997,,1279901.406,,,
ITI,canvas.Screen,0_5_18_4,2022-07-15T14:42:55.347Z,,,,,,6,499.8400000000838,timeout,,,0.545,,,,,,,,,,,,,,,,,0.515,true,1280386.600000009,1280384.596,1279884.732,1279887.700000003,1279901.406,1280401.246,,,
trial,flow.Sequence,0_5_18,2022-07-15T14:42:55.348Z,,,,,,6,4249.195999999996,completion,,,0.545,,,,,,,,,,,,,,,,,0.515,true,1280386.900000006,1280384.596,1276118.596,1276120,1276135.4,1280401.246,,,
fixation,canvas.Screen,0_5_19_0,2022-07-15T14:42:55.846Z,,,,,,18,500.2970000000205,timeout,,,0.545,,,,,,,,,,,,,,,,,0.455,true,1280885.600000009,1280884.712,1280384.596,1280387,1280401.246,1280901.543,,,
stimulus,canvas.Screen,0_5_19_1,2022-07-15T14:42:56.386Z,,,,,,18,521.5570000088774,response,,0.455,0.545,,,https://raw.githubusercontent.com/carero2/loss-perception/main/png/0.455blue1yellowb%3D1w%3D100v%3D57.png,https://raw.githubusercontent.com/carero2/loss-perception/main/png/0.545blue1yellowb%3D1w%3D100v%3D57.png,,,,,,,,,true,j,keypress(j),0.545,0.455,true,1281425,1281423.100000009,1280884.712,1280885.900000006,1280901.543,1281434.468,,,
choice,canvas.Screen,0_5_19_2,2022-07-15T14:42:58.380Z,,,,0.545,,18,1999.8829999999143,timeout,,,0.545,,0.455,,,9,,,,,,,105,,,,,0.455,true,1283419.299999997,1283417.544,1281418.144,1281429.200000003,1281434.468,1283434.351,,205,
timeout,canvas.Screen,0_5_19_3,2022-07-15T14:42:58.383Z,,,,,,18,NaN,skipped,,,0.545,,,,,,,,,,,,,,,,,0.455,true,1283422.100000009,1283417.544,,1283421.900000006,,1283434.351,,,
ITI,canvas.Screen,0_5_19_4,2022-07-15T14:42:58.879Z,,,,,,18,500.0260000000708,timeout,,,0.545,,,,,,,,,,,,,,,,,0.455,true,1283918.5,1283917.561,1283417.544,1283422.600000009,1283434.351,1283934.377,,,
trial,flow.Sequence,0_5_19,2022-07-15T14:42:58.880Z,,,,,,18,3516.314999999944,completion,,,0.545,,,,,,,,,,,,,,,,,0.455,true,1283918.700000003,1283917.561,1280384.596,1280387,1280401.246,1283934.377,,,
fixation,canvas.Screen,0_5_20_0,2022-07-15T14:42:59.379Z,,,,,,6,499.68399999989197,timeout,,,0.485,,,,,,,,,,,,,,,,,0.455,false,1284418.600000009,1284417.524,1283917.561,1283919,1283934.377,1284434.061,,,
stimulus,canvas.Screen,0_5_20_1,2022-07-15T14:43:00.630Z,,,,,,6,1233.5390000089537,response,,0.485,0.485,,,https://raw.githubusercontent.com/carero2/loss-perception/main/png/0.485blue1yellowb%3D1w%3D100v%3D42.png,https://raw.githubusercontent.com/carero2/loss-perception/main/png/0.455blue1yellowb%3D1w%3D100v%3D42.png,,,,,,,,,true,f,keypress(f),0.455,0.455,false,1285669,1285667.600000009,1284417.524,1284418.700000003,1284434.061,1285684.173,,,
choice,canvas.Screen,0_5_20_2,2022-07-15T14:43:02.629Z,,,,0.485,,6,2000.6070000000764,timeout,,,0.485,,0.455,,,-3,,,,,,,102,,,,,0.455,false,1287668.200000003,1287667.055,1285666.98,1285671.700000003,1285684.173,1287684.78,,202,
timeout,canvas.Screen,0_5_20_3,2022-07-15T14:43:02.631Z,,,,,,6,NaN,skipped,,,0.485,,,,,,,,,,,,,,,,,0.455,false,1287670.400000006,1287667.055,,1287670.100000009,,1287684.78,,,
ITI,canvas.Screen,0_5_20_4,2022-07-15T14:43:03.129Z,,,,,,6,498.94799999985844,timeout,,,0.485,,,,,,,,,,,,,,,,,0.455,false,1288167.900000006,1288167.044,1287667.055,1287670.600000009,1287684.78,1288183.728,,,
trial,flow.Sequence,0_5_20,2022-07-15T14:43:03.129Z,,,,,,6,4232.666999999899,completion,,,0.485,,,,,,,,,,,,,,,,,0.455,false,1288168.299999997,1288167.044,1283917.561,1283919,1283934.377,1288183.728,,,
fixation,canvas.Screen,0_5_21_0,2022-07-15T14:43:03.629Z,,,,,,12,500.03200000012293,timeout,,,0.53,,,,,,,,,,,,,,,,,0.47,true,1288667.900000006,1288667.048,1288167.044,1288168.600000009,1288183.728,1288683.76,,,
stimulus,canvas.Screen,0_5_21_1,2022-07-15T14:43:04.205Z,,,,,,12,558.7399999999907,response,,0.47,0.53,,,https://raw.githubusercontent.com/carero2/loss-perception/main/png/0.47blue1yellowb%3D1w%3D100v%3D68.png,https://raw.githubusercontent.com/carero2/loss-perception/main/png/0.53blue1yellowb%3D1w%3D100v%3D68.png,,,,,,,,,true,j,keypress(j),0.53,0.47,true,1289244.400000006,1289242.5,1288667.048,1288668.100000009,1288683.76,1289250.094,,,
choice,canvas.Screen,0_5_21_2,2022-07-15T14:43:06.194Z,,,,0.53,,12,1999.7619999998715,timeout,,,0.53,,0.47,,,6,,,,,,,108,,,,,0.47,true,1291233.5,1291233.207,1289233.456,1289247.700000003,1289250.094,1291249.856,,208,
timeout,canvas.Screen,0_5_21_3,2022-07-15T14:43:06.195Z,,,,,,12,NaN,skipped,,,0.53,,,,,,,,,,,,,,,,,0.47,true,1291234.400000006,1291233.207,,1291234.299999997,,1291249.856,,,
ITI,canvas.Screen,0_5_21_4,2022-07-15T14:43:06.695Z,,,,,,12,500.60800000000745,timeout,,,0.53,,,,,,,,,,,,,,,,,0.47,true,1291733.799999997,1291733.163,1291233.207,1291234.5,1291249.856,1291750.464,,,
trial,flow.Sequence,0_5_21,2022-07-15T14:43:06.695Z,,,,,,12,3549.435000000056,completion,,,0.53,,,,,,,,,,,,,,,,,0.47,true,1291734.100000009,1291733.163,1288167.044,1288168.400000006,1288183.728,1291750.464,,,
fixation,canvas.Screen,0_5_22_0,2022-07-15T14:43:07.195Z,,,,,,6,499.54200000013225,timeout,,,0.515,,,,,,,,,,,,,,,,,0.485,true,1292234.200000003,1292233.156,1291733.163,1291734.299999997,1291750.464,1292250.006,,,
stimulus,canvas.Screen,0_5_22_1,2022-07-15T14:43:07.964Z,,,,,,6,751.5940000088885,response,,0.485,0.515,,,https://raw.githubusercontent.com/carero2/loss-perception/main/png/0.485blue1yellowb%3D1w%3D100v%3D57.png,https://raw.githubusercontent.com/carero2/loss-perception/main/png/0.515blue1yellowb%3D1w%3D100v%3D57.png,,,,,,,,,true,j,keypress(j),0.515,0.485,true,1293002.900000006,1293001.600000009,1292233.156,1292234.400000006,1292250.006,1293032.994,,,
choice,canvas.Screen,0_5_22_2,2022-07-15T14:43:09.978Z,,,,0.515,,6,1999.7140000001527,timeout,,,0.515,,0.485,,,3,,,,,,,111,,,,,0.485,true,1295017.5,1295016.376,1293016.317,1293006.700000003,1293032.994,1295032.708,,211,
timeout,canvas.Screen,0_5_22_3,2022-07-15T14:43:09.981Z,,,,,,6,NaN,skipped,,,0.515,,,,,,,,,,,,,,,,,0.485,true,1295019.900000006,1295016.376,,1295019.600000009,,1295032.708,,,
ITI,canvas.Screen,0_5_22_4,2022-07-15T14:43:10.478Z,,,,,,6,500.1109999998007,timeout,,,0.515,,,,,,,,,,,,,,,,,0.485,true,1295517,1295516.085,1295016.376,1295020,1295032.708,1295532.819,,,
trial,flow.Sequence,0_5_22,2022-07-15T14:43:10.478Z,,,,,,6,3765.621000000043,completion,,,0.515,,,,,,,,,,,,,,,,,0.485,true,1295517.600000009,1295516.085,1291733.163,1291734.200000003,1291750.464,1295532.819,,,
fixation,canvas.Screen,0_5_23_0,2022-07-15T14:43:10.977Z,,,,,,9,499.752000000095,timeout,,,0.485,,,,,,,,,,,,,,,,,0.53,false,1296016.600000009,1296016.005,1295516.085,1295517.700000003,1295532.819,1296032.571,,,
stimulus,canvas.Screen,0_5_23_1,2022-07-15T14:43:11.567Z,,,,,,9,572.5290000089444,response,,0.485,0.485,,,https://raw.githubusercontent.com/carero2/loss-perception/main/png/0.485blue1yellowb%3D1w%3D100v%3D11.png,https://raw.githubusercontent.com/carero2/loss-perception/main/png/0.53blue1yellowb%3D1w%3D100v%3D11.png,,,,,,,,,true,j,keypress(j),0.53,0.53,false,1296606.299999997,1296605.100000009,1296016.005,1296016.799999997,1296032.571,1296615.973,,,
choice,canvas.Screen,0_5_23_2,2022-07-15T14:43:13.561Z,,,,0.53,,9,1999.8789999999572,timeout,,,0.485,,0.485,,,6,,,,,,,117,,,,,0.53,false,1298600,1298599.115,1296599.079,1296609.299999997,1296615.973,1298615.852,,217,
timeout,canvas.Screen,0_5_23_3,2022-07-15T14:43:13.563Z,,,,,,9,NaN,skipped,,,0.485,,,,,,,,,,,,,,,,,0.53,false,1298602.100000009,1298599.115,,1298601.799999997,,1298615.852,,,
ITI,canvas.Screen,0_5_23_4,2022-07-15T14:43:14.061Z,,,,,,9,499.93900000001304,timeout,,,0.485,,,,,,,,,,,,,,,,,0.53,false,1299100.100000009,1299099.055,1298599.115,1298602.200000003,1298615.852,1299115.791,,,
trial,flow.Sequence,0_5_23,2022-07-15T14:43:14.061Z,,,,,,9,3566.2360000000335,completion,,,0.485,,,,,,,,,,,,,,,,,0.53,false,1299100.5,1299099.055,1295516.085,1295517.600000009,1295532.819,1299115.791,,,
pratice,flow.Loop,0_5,2022-07-15T14:43:14.061Z,,,,,,,95387.78000000003,completion,,,,,,,,,,,,,,,,,,,,,,1299100.700000003,1299099.055,1203694.619,1203696.400000006,1203711.275,1299115.791,,,
show amount,html.Screen,0_6,2022-07-15T14:43:22.598Z,,,,,,,8516.909000003012,response,,,,,,,,,,,,,,,,,Continue,click #Continue,,,,1307637,1307632.700000003,1299099.055,1299102.299999997,1299115.791,1307647.82,,,
first block,canvas.Screen,0_7,2022-07-15T14:43:24.728Z,,,,,,,2118.9799999969546,response,,,,,,,,,,,,,,,,,space,keypress(Space),,,,1309767.900000006,1309766.799999997,1307631.098,1307637.100000009,1307647.82,1309781.182,,,
fixation,canvas.Screen,0_8_0_0,2022-07-15T14:43:25.225Z,,,,,,4,849.4949999998789,timeout,,,0.53,,,,,,,,,,,,,,,,,0.51,true,1310264.400000006,1310264.042,1309764.193,1309768.100000009,1309781.182,1310630.677,,,
stimulus,canvas.Screen,0_8_0_1,2022-07-15T14:43:26.911Z,,,,,,4,1318.622999997111,response,,0.51,0.53,,,https://raw.githubusercontent.com/carero2/loss-perception/main/png/0.51blue1yellowb%3D1w%3D100v%3D7.png,https://raw.githubusercontent.com/carero2/loss-perception/main/png/0.53blue1yellowb%3D1w%3D100v%3D7.png,,,,,,,,,true,j,keypress(j),0.53,0.51,true,1311950,1311949.299999997,1310264.042,1310636.600000009,1310630.677,1311980.726,,,
choice,canvas.Screen,0_8_0_2,2022-07-15T14:43:27.925Z,,,,0.53,,4,999.6620000000112,timeout,,,0.53,,0.51,,,6,6,,,,,,,,,,,0.51,true,1312964.799999997,1312963.776,1311963.832,1311966.400000006,1311980.726,1312980.388,106,,
ITI,canvas.Screen,0_8_0_3,2022-07-15T14:43:28.426Z,,,2405,,,4,500.00600000005215,timeout,,,0.53,,,,,,,,,,,,,,,,,0.51,true,1313465.5,1313463.943,1312963.776,1312965.200000003,1312980.388,1313480.394,,,
trial,flow.Sequence,0_8_0,2022-07-15T14:43:28.427Z,,,,,,4,3682.7609999999404,completion,,,0.53,,,,,,,,,,,,,,,,,0.51,true,1313466,1313463.943,1309764.193,1309768.100000009,1309781.182,1313480.394,,,
fixation,canvas.Screen,0_8_1_0,2022-07-15T14:43:28.925Z,,,,,,2,749.8669999998529,timeout,,,0.505,,,,,,,,,,,,,,,,,0.495,true,1313964.400000006,1313963.627,1313463.943,1313466.299999997,1313480.394,1314230.261,,,
stimulus,canvas.Screen,0_8_1_1,2022-07-15T14:43:30.602Z,,,,,,2,1408.9390000030398,response,,0.495,0.505,,,https://raw.githubusercontent.com/carero2/loss-perception/main/png/0.495blue1yellowb%3D1w%3D100v%3D77.png,https://raw.githubusercontent.com/carero2/loss-perception/main/png/0.505blue1yellowb%3D1w%3D100v%3D77.png,,,,,,,,,true,j,keypress(j),0.505,0.495,true,1315641.100000009,1315639.200000003,1313963.627,1314235.400000006,1314230.261,1315663.67,,,
choice,canvas.Screen,0_8_1_2,2022-07-15T14:43:31.608Z,,,,0.505,,2,999.6770000001416,timeout,,,0.505,,0.495,,,1,7,,,,,,,,,,,0.495,true,1316647.600000009,1316646.718,1315647.007,1315656.900000006,1315663.67,1316663.347,107,,
ITI,canvas.Screen,0_8_1_3,2022-07-15T14:43:32.109Z,,,2941,,,2,500.0799999998417,timeout,,,0.505,,,,,,,,,,,,,,,,,0.495,true,1317148.5,1317146.511,1316646.718,1316647.900000006,1316663.347,1317163.427,,,
trial,flow.Sequence,0_8_1,2022-07-15T14:43:32.110Z,,,,,,2,3666.116999999853,completion,,,0.505,,,,,,,,,,,,,,,,,0.495,true,1317149.100000009,1317146.511,1313463.943,1313466.200000003,1313480.394,1317163.427,,,
fixation,canvas.Screen,0_8_2_0,2022-07-15T14:43:32.608Z,,,,,,4,849.6140000000596,timeout,,,0.51,,,,,,,,,,,,,,,,,0.49,true,1317647.299999997,1317646.463,1317146.511,1317149.299999997,1317163.427,1318013.041,,,
stimulus,canvas.Screen,0_8_2_1,2022-07-15T14:43:33.927Z,,,,,,4,948.2589999970514,response,,0.49,0.51,,,https://raw.githubusercontent.com/carero2/loss-perception/main/png/0.49blue1yellowb%3D1w%3D100v%3D3.png,https://raw.githubusercontent.com/carero2/loss-perception/main/png/0.51blue1yellowb%3D1w%3D100v%3D3.png,,,,,,,,,true,j,keypress(j),0.51,0.49,true,1318966,1318961.299999997,1317646.463,1318017.900000006,1318013.041,1318979.579,,,
choice,canvas.Screen,0_8_2_2,2022-07-15T14:43:34.926Z,,,,0.51,,4,999.8819999999832,timeout,,,0.51,,0.49,,,2,9,,,,,,,,,,,0.49,true,1319965,1319962.793,1318962.951,1318976,1318979.579,1319979.461,109,,
ITI,canvas.Screen,0_8_2_3,2022-07-15T14:43:35.424Z,,,2925,,,4,500.03000000002794,timeout,,,0.51,,,,,,,,,,,,,,,,,0.49,true,1320463.799999997,1320462.838,1319962.793,1319965.100000009,1319979.461,1320479.491,,,
trial,flow.Sequence,0_8_2,2022-07-15T14:43:35.426Z,,,,,,4,3299.41100000008,completion,,,0.51,,,,,,,,,,,,,,,,,0.49,true,1320465,1320462.838,1317146.511,1317149.299999997,1317163.427,1320479.491,,,
fixation,canvas.Screen,0_8_3_0,2022-07-15T14:43:35.924Z,,,,,,6,766.6700000001583,timeout,,,0.485,,,,,,,,,,,,,,,,,0.455,false,1320963.799999997,1320963.016,1320462.838,1320465.299999997,1320479.491,1321246.161,,,
stimulus,canvas.Screen,0_8_3_1,2022-07-15T14:43:37.152Z,,,,,,6,944.1389999969397,response,,0.485,0.485,,,https://raw.githubusercontent.com/carero2/loss-perception/main/png/0.485blue1yellowb%3D1w%3D100v%3D62.png,https://raw.githubusercontent.com/carero2/loss-perception/main/png/0.455blue1yellowb%3D1w%3D100v%3D62.png,,,,,,,,,true,f,keypress(f),0.455,0.455,false,1322191.299999997,1322190.299999997,1320963.016,1321254.799999997,1321246.161,1322212.796,,,
choice,canvas.Screen,0_8_3_2,2022-07-15T14:43:38.158Z,,,,0.485,,6,999.5799999998417,timeout,,,0.485,,0.455,,,-3,6,,,,,,,,,,,0.455,false,1323197.100000009,1323196.021,1322195.96,1322204.299999997,1322212.796,1323212.376,106,,
ITI,canvas.Screen,0_8_3_3,2022-07-15T14:43:38.657Z,,,2539,,,6,500.1950000000652,timeout,,,0.485,,,,,,,,,,,,,,,,,0.455,false,1323696.700000003,1323695.752,1323196.021,1323197.299999997,1323212.376,1323712.571,,,
trial,flow.Sequence,0_8_3,2022-07-15T14:43:38.658Z,,,,,,6,3216.261000000173,completion,,,0.485,,,,,,,,,,,,,,,,,0.455,false,1323697.200000003,1323695.752,1320462.838,1320465.200000003,1320479.491,1323712.571,,,
fixation,canvas.Screen,0_8_4_0,2022-07-15T14:43:39.157Z,,,,,,6,916.375,timeout,,,0.545,,,,,,,,,,,,,,,,,0.515,true,1324196.900000006,1324195.852,1323695.752,1323697.5,1323712.571,1324628.946,,,
stimulus,canvas.Screen,0_8_4_1,2022-07-15T14:43:40.218Z,,,,,,6,627.254000002984,response,,0.515,0.545,,,https://raw.githubusercontent.com/carero2/loss-perception/main/png/0.515blue1yellowb%3D1w%3D100v%3D69.png,https://raw.githubusercontent.com/carero2/loss-perception/main/png/0.545blue1yellowb%3D1w%3D100v%3D69.png,,,,,,,,,true,j,keypress(j),0.545,0.515,true,1325257.600000009,1325256.200000003,1324195.852,1324635.200000003,1324628.946,1325278.79,,,
choice,canvas.Screen,0_8_4_2,2022-07-15T14:43:41.224Z,,,,0.545,,6,1000.0819999999367,timeout,,,0.545,,0.515,,,9,15,,,,,,,,,,,0.515,true,1326263.200000003,1326262.3,1325262.419,1325269.900000006,1325278.79,1326278.872,115,,
ITI,canvas.Screen,0_8_4_3,2022-07-15T14:43:41.724Z,,,2968,,,6,499.7420000000857,timeout,,,0.545,,,,,,,,,,,,,,,,,0.515,true,1326762.900000006,1326762.046,1326262.3,1326263.5,1326278.872,1326778.614,,,
trial,flow.Sequence,0_8_4,2022-07-15T14:43:41.724Z,,,,,,6,3049.475000000093,completion,,,0.545,,,,,,,,,,,,,,,,,0.515,true,1326763.400000006,1326762.046,1323695.752,1323697.299999997,1323712.571,1326778.614,,,
fixation,canvas.Screen,0_8_5_0,2022-07-15T14:43:42.223Z,,,,,,6,850.1219999999739,timeout,,,0.515,,,,,,,,,,,,,,,,,0.485,true,1327262.799999997,1327261.957,1326762.046,1326763.600000009,1326778.614,1327628.736,,,
stimulus,canvas.Screen,0_8_5_1,2022-07-15T14:43:43.758Z,,,,,,6,1166.7639999999665,response,,0.485,0.515,,,https://raw.githubusercontent.com/carero2/loss-perception/main/png/0.485blue1yellowb%3D1w%3D100v%3D15.png,https://raw.githubusercontent.com/carero2/loss-perception/main/png/0.515blue1yellowb%3D1w%3D100v%3D15.png,,,,,,,,,true,j,keypress(j),0.515,0.485,true,1328797.299999997,1328795.5,1327261.957,1327635.200000003,1327628.736,1328811.675,,,
choice,canvas.Screen,0_8_5_2,2022-07-15T14:43:44.757Z,,,,0.515,,6,1000.2749999999069,timeout,,,0.515,,0.485,,,3,18,,,,,,,,,,,0.485,true,1329796.5,1329794.899,1328795.306,1328809.799999997,1328811.675,1329811.95,118,,
ITI,canvas.Screen,0_8_5_3,2022-07-15T14:43:45.256Z,,,2289,,,6,499.4880000001285,timeout,,,0.515,,,,,,,,,,,,,,,,,0.485,true,1330295.200000003,1330294.816,1329794.899,1329797,1329811.95,1330311.438,,,
trial,flow.Sequence,0_8_5,2022-07-15T14:43:45.256Z,,,,,,6,3516.2020000000484,completion,,,0.515,,,,,,,,,,,,,,,,,0.485,true,1330295.299999997,1330294.816,1326762.046,1326763.600000009,1326778.614,1330311.438,,,
fixation,canvas.Screen,0_8_6_0,2022-07-15T14:43:45.756Z,,,,,,4,783.2249999998603,timeout,,,0.49,,,,,,,,,,,,,,,,,0.47,false,1330795.100000009,1330794.716,1330294.816,1330295.400000006,1330311.438,1331094.663,,,
stimulus,canvas.Screen,0_8_6_1,2022-07-15T14:43:46.800Z,,,,,,4,743.7370000060182,response,,0.49,0.49,,,https://raw.githubusercontent.com/carero2/loss-perception/main/png/0.49blue1yellowb%3D1w%3D100v%3D64.png,https://raw.githubusercontent.com/carero2/loss-perception/main/png/0.47blue1yellowb%3D1w%3D100v%3D64.png,,,,,,,,,true,f,keypress(f),0.47,0.47,false,1331839.400000006,1331838.400000006,1330794.716,1331101.100000009,1331094.663,1331861.275,,,
choice,canvas.Screen,0_8_6_2,2022-07-15T14:43:47.806Z,,,,0.49,,4,1000.0470000000205,timeout,,,0.49,,0.47,,,-2,16,,,,,,,,,,,0.47,false,1332845.900000006,1332844.752,1331844.606,1331861,1331861.275,1332861.322,116,,
ITI,canvas.Screen,0_8_6_3,2022-07-15T14:43:48.306Z,,,2370,,,4,500.0139999999665,timeout,,,0.49,,,,,,,,,,,,,,,,,0.47,false,1333345.400000006,1333344.494,1332844.752,1332846.200000003,1332861.322,1333361.336,,,
trial,flow.Sequence,0_8_6,2022-07-15T14:43:48.306Z,,,,,,4,3033.055999999866,completion,,,0.49,,,,,,,,,,,,,,,,,0.47,false,1333345.900000006,1333344.494,1330294.816,1330295.400000006,1330311.438,1333361.336,,,
fixation,canvas.Screen,0_8_7_0,2022-07-15T14:43:48.806Z,,,,,,2,699.7610000001732,timeout,,,0.515,,,,,,,,,,,,,,,,,0.505,true,1333845.200000003,1333844.36,1333344.494,1333346,1333361.336,1334061.097,,,
stimulus,canvas.Screen,0_8_7_1,2022-07-15T14:43:50.442Z,,,,,,2,1419.402999999933,response,,0.505,0.515,,,https://raw.githubusercontent.com/carero2/loss-perception/main/png/0.505blue1yellowb%3D1w%3D100v%3D8.png,https://raw.githubusercontent.com/carero2/loss-perception/main/png/0.515blue1yellowb%3D1w%3D100v%3D8.png,,,,,,,,,true,j,keypress(j),0.515,0.505,true,1335481.100000009,1335480.5,1333844.36,1334066,1334061.097,1335494.107,,,
choice,canvas.Screen,0_8_7_2,2022-07-15T14:43:51.439Z,,,,0.515,,2,1000.1699999999255,timeout,,,0.515,,0.505,,,3,19,,,,,,,,,,,0.505,true,1336478.200000003,1336477.405,1335477.693,1335491.900000006,1335494.107,1336494.277,119,,
ITI,canvas.Screen,0_8_7_3,2022-07-15T14:43:51.940Z,,,2605,,,2,499.6950000000652,timeout,,,0.515,,,,,,,,,,,,,,,,,0.505,true,1336979,1336977.603,1336477.405,1336478.5,1336494.277,1336993.972,,,
trial,flow.Sequence,0_8_7,2022-07-15T14:43:51.940Z,,,,,,2,3616.2669999999925,completion,,,0.515,,,,,,,,,,,,,,,,,0.505,true,1336979.600000009,1336977.603,1333344.494,1333346,1333361.336,1336993.972,,,
fixation,canvas.Screen,0_8_8_0,2022-07-15T14:43:52.439Z,,,,,,2,750.1309999998193,timeout,,,0.495,,,,,,,,,,,,,,,,,0.485,true,1337478.200000003,1337477.326,1336977.603,1336979.900000006,1336993.972,1337744.103,,,
stimulus,canvas.Screen,0_8_8_1,2022-07-15T14:43:54.710Z,,,,,,2,2003.9970000090543,response,,0.485,0.495,,,https://raw.githubusercontent.com/carero2/loss-perception/main/png/0.485blue1yellowb%3D1w%3D100v%3D3.png,https://raw.githubusercontent.com/carero2/loss-perception/main/png/0.495blue1yellowb%3D1w%3D100v%3D3.png,,,,,,,,,true,j,keypress(j),0.495,0.485,true,1339749.5,1339748.100000009,1337477.326,1337752.5,1337744.103,1339776.884,,,
choice,canvas.Screen,0_8_8_2,2022-07-15T14:43:55.722Z,,,,0.495,,2,1000.1489999999758,timeout,,,0.495,,0.485,,,-1,18,,,,,,,,,,,0.485,true,1340761.400000006,1340760.459,1339760.47,1339763.900000006,1339776.884,1340777.033,118,,
ITI,canvas.Screen,0_8_8_3,2022-07-15T14:43:56.222Z,,,2565,,,2,499.8179999999702,timeout,,,0.495,,,,,,,,,,,,,,,,,0.485,true,1341261.100000009,1341260.233,1340760.459,1340761.600000009,1340777.033,1341276.851,,,
trial,flow.Sequence,0_8_8,2022-07-15T14:43:56.222Z,,,,,,2,4266.26099999994,completion,,,0.495,,,,,,,,,,,,,,,,,0.485,true,1341261.799999997,1341260.233,1336977.603,1336979.799999997,1336993.972,1341276.851,,,
fixation,canvas.Screen,0_8_9_0,2022-07-15T14:43:56.722Z,,,,,,2,716.6469999998808,timeout,,,0.515,,,,,,,,,,,,,,,,,0.505,false,1341761.200000003,1341760.247,1341260.233,1341262.100000009,1341276.851,1341993.498,,,
stimulus,canvas.Screen,0_8_9_1,2022-07-15T14:43:58.649Z,,,,,,2,1694.002000000095,response,,0.515,0.515,,,https://raw.githubusercontent.com/carero2/loss-perception/main/png/0.515blue1yellowb%3D1w%3D100v%3D54.png,https://raw.githubusercontent.com/carero2/loss-perception/main/png/0.505blue1yellowb%3D1w%3D100v%3D54.png,,,,,,,,,true,f,keypress(f),0.505,0.505,false,1343688.5,1343687.5,1341760.247,1341998.200000003,1341993.498,1343709.961,,,
choice,canvas.Screen,0_8_9_2,2022-07-15T14:43:59.656Z,,,,0.515,,2,999.7050000000745,timeout,,,0.515,,0.505,,,3,21,,,,,,,,,,,0.505,false,1344695.100000009,1344693.235,1343693.246,1343700.700000003,1343709.961,1344709.666,121,,
ITI,canvas.Screen,0_8_9_3,2022-07-15T14:44:00.154Z,,,2743,,,2,499.89100000006147,timeout,,,0.515,,,,,,,,,,,,,,,,,0.505,false,1345193.700000003,1345192.882,1344693.235,1344695.400000006,1344709.666,1345209.557,,,
trial,flow.Sequence,0_8_9,2022-07-15T14:44:00.155Z,,,,,,2,3916.030999999959,completion,,,0.515,,,,,,,,,,,,,,,,,0.505,false,1345194.100000009,1345192.882,1341260.233,1341262,1341276.851,1345209.557,,,
fixation,canvas.Screen,0_8_10_0,2022-07-15T14:44:00.654Z,,,,,,6,749.8799999998882,timeout,,,0.545,,,,,,,,,,,,,,,,,0.515,true,1345693.799999997,1345693.148,1345192.882,1345194.200000003,1345209.557,1345959.437,,,
stimulus,canvas.Screen,0_8_10_1,2022-07-15T14:44:02.415Z,,,,,,6,1493.4630000060424,response,,0.515,0.545,,,https://raw.githubusercontent.com/carero2/loss-perception/main/png/0.515blue1yellowb%3D1w%3D100v%3D96.png,https://raw.githubusercontent.com/carero2/loss-perception/main/png/0.545blue1yellowb%3D1w%3D100v%3D96.png,,,,,,,,,true,j,keypress(j),0.545,0.515,true,1347453.900000006,1347452.900000006,1345693.148,1345964.200000003,1345959.437,1347475.882,,,
choice,canvas.Screen,0_8_10_2,2022-07-15T14:44:03.421Z,,,,0.545,,6,999.8929999999236,timeout,,,0.545,,0.515,,,9,30,,,,,,,,,,,0.515,true,1348460.100000009,1348459.299,1347459.578,1347468.600000009,1347475.882,1348475.775,130,,
ITI,canvas.Screen,0_8_10_3,2022-07-15T14:44:03.921Z,,,2812,,,6,500.2360000000335,timeout,,,0.545,,,,,,,,,,,,,,,,,0.515,true,1348960,1348959.139,1348459.299,1348460.400000006,1348475.775,1348976.011,,,
trial,flow.Sequence,0_8_10,2022-07-15T14:44:03.921Z,,,,,,6,3749.5819999999367,completion,,,0.545,,,,,,,,,,,,,,,,,0.515,true,1348960.5,1348959.139,1345192.882,1345194.100000009,1345209.557,1348976.011,,,
fixation,canvas.Screen,0_8_11_0,2022-07-15T14:44:04.421Z,,,,,,4,716.3370000000577,timeout,,,0.51,,,,,,,,,,,,,,,,,0.49,false,1349460,1349459.14,1348959.139,1348960.700000003,1348976.011,1349692.348,,,
stimulus,canvas.Screen,0_8_11_1,2022-07-15T14:44:05.454Z,,,,,,4,800.6520000000019,response,,0.51,0.51,,,https://raw.githubusercontent.com/carero2/loss-perception/main/png/0.51blue1yellowb%3D1w%3D100v%3D17.png,https://raw.githubusercontent.com/carero2/loss-perception/main/png/0.49blue1yellowb%3D1w%3D100v%3D17.png,,,,,,,,,true,f,keypress(f),0.49,0.49,false,1350493.799999997,1350493,1349459.14,1349699.5,1349692.348,1350508.83,,,
choice,canvas.Screen,0_8_11_2,2022-07-15T14:44:06.453Z,,,,0.51,,4,999.8639999998268,timeout,,,0.51,,0.49,,,2,32,,,,,,,,,,,0.49,false,1351492.600000009,1351492.038,1350492.139,1350506.799999997,1350508.83,1351508.694,132,,
ITI,canvas.Screen,0_8_11_3,2022-07-15T14:44:06.953Z,,,2262,,,4,500.0250000001397,timeout,,,0.51,,,,,,,,,,,,,,,,,0.49,false,1351992.700000003,1351992.23,1351492.038,1351492.700000003,1351508.694,1352008.719,,,
trial,flow.Sequence,0_8_11,2022-07-15T14:44:06.954Z,,,,,,4,3016.219000000041,completion,,,0.51,,,,,,,,,,,,,,,,,0.49,false,1351993,1351992.23,1348959.139,1348960.700000003,1348976.011,1352008.719,,,
fixation,canvas.Screen,0_8_12_0,2022-07-15T14:44:07.453Z,,,,,,4,733.3459999999031,timeout,,,0.49,,,,,,,,,,,,,,,,,0.47,true,1352492.799999997,1352491.974,1351992.23,1351993.299999997,1352008.719,1352742.065,,,
stimulus,canvas.Screen,0_8_12_1,2022-07-15T14:44:08.845Z,,,,,,4,1140.635000003036,response,,0.47,0.49,,,https://raw.githubusercontent.com/carero2/loss-perception/main/png/0.47blue1yellowb%3D1w%3D100v%3D99.png,https://raw.githubusercontent.com/carero2/loss-perception/main/png/0.49blue1yellowb%3D1w%3D100v%3D99.png,,,,,,,,,true,j,keypress(j),0.49,0.47,true,1353884.600000009,1353882.700000003,1352491.974,1352749.700000003,1352742.065,1353908.388,,,
choice,canvas.Screen,0_8_12_2,2022-07-15T14:44:09.853Z,,,,0.49,,4,999.9599999999627,timeout,,,0.49,,0.47,,,-2,30,,,,,,,,,,,0.47,true,1354893,1354891.898,1353891.719,1353903.900000006,1353908.388,1354908.348,130,,
ITI,canvas.Screen,0_8_12_3,2022-07-15T14:44:10.353Z,,,2256,,,4,500.15200000000186,timeout,,,0.49,,,,,,,,,,,,,,,,,0.47,true,1355392.5,1355391.592,1354891.898,1354893.200000003,1354908.348,1355408.5,,,
trial,flow.Sequence,0_8_12,2022-07-15T14:44:10.353Z,,,,,,4,3382.872999999905,completion,,,0.49,,,,,,,,,,,,,,,,,0.47,true,1355392.799999997,1355391.592,1351992.23,1351993.200000003,1352008.719,1355408.5,,,
fixation,canvas.Screen,0_8_13_0,2022-07-15T14:44:10.853Z,,,,,,4,749.8240000000224,timeout,,,0.53,,,,,,,,,,,,,,,,,0.51,false,1355892.299999997,1355891.787,1355391.592,1355393,1355408.5,1356158.324,,,
stimulus,canvas.Screen,0_8_13_1,2022-07-15T14:44:11.696Z,,,,,,4,575.6759999999776,response,,0.53,0.53,,,https://raw.githubusercontent.com/carero2/loss-perception/main/png/0.53blue1yellowb%3D1w%3D100v%3D23.png,https://raw.githubusercontent.com/carero2/loss-perception/main/png/0.51blue1yellowb%3D1w%3D100v%3D23.png,,,,,,,,,true,f,keypress(f),0.51,0.51,false,1356735.799999997,1356734,1355891.787,1356164.900000006,1356158.324,1356758.189,,,
choice,canvas.Screen,0_8_13_2,2022-07-15T14:44:12.704Z,,,,0.53,,4,999.688000000082,timeout,,,0.53,,0.51,,,6,36,,,,,,,,,,,0.51,false,1357743.5,1357741.279,1356741.309,1356747.900000006,1356758.189,1357757.877,136,,
ITI,canvas.Screen,0_8_13_3,2022-07-15T14:44:13.203Z,,,2224,,,4,500.0209999999497,timeout,,,0.53,,,,,,,,,,,,,,,,,0.51,false,1358242.400000006,1358241.297,1357741.279,1357743.900000006,1357757.877,1358257.898,,,
trial,flow.Sequence,0_8_13,2022-07-15T14:44:13.203Z,,,,,,4,2832.7970000000205,completion,,,0.53,,,,,,,,,,,,,,,,,0.51,false,1358242.799999997,1358241.297,1355391.592,1355392.900000006,1355408.5,1358257.898,,,
fixation,canvas.Screen,0_8_14_0,2022-07-15T14:44:13.703Z,,,,,,2,733.1969999999274,timeout,,,0.505,,,,,,,,,,,,,,,,,0.495,true,1358742.100000009,1358741.227,1358241.297,1358243,1358257.898,1358991.095,,,
stimulus,canvas.Screen,0_8_14_1,2022-07-15T14:44:15.059Z,,,,,,2,1105.7049999970477,response,,0.495,0.505,,,https://raw.githubusercontent.com/carero2/loss-perception/main/png/0.495blue1yellowb%3D1w%3D100v%3D48.png,https://raw.githubusercontent.com/carero2/loss-perception/main/png/0.505blue1yellowb%3D1w%3D100v%3D48.png,,,,,,,,,true,j,keypress(j),0.505,0.495,true,1360097.900000006,1360096.799999997,1358741.227,1358995.700000003,1358991.095,1360124.273,,,
choice,canvas.Screen,0_8_14_2,2022-07-15T14:44:16.069Z,,,,0.505,,2,999.8489999999292,timeout,,,0.505,,0.495,,,1,37,,,,,,,,,,,0.495,true,1361108.200000003,1361107.705,1360107.602,1360113.900000006,1360124.273,1361124.122,137,,
ITI,canvas.Screen,0_8_14_3,2022-07-15T14:44:16.569Z,,,2602,,,2,499.9329999999609,timeout,,,0.505,,,,,,,,,,,,,,,,,0.495,true,1361608.799999997,1361607.676,1361107.705,1361108.299999997,1361124.122,1361624.055,,,
trial,flow.Sequence,0_8_14,2022-07-15T14:44:16.570Z,,,,,,2,3349.777999999933,completion,,,0.505,,,,,,,,,,,,,,,,,0.495,true,1361609.900000006,1361607.676,1358241.297,1358242.900000006,1358257.898,1361624.055,,,
fixation,canvas.Screen,0_8_15_0,2022-07-15T14:44:17.069Z,,,,,,2,716.9270000001416,timeout,,,0.495,,,,,,,,,,,,,,,,,0.485,true,1362108.100000009,1362107.324,1361607.676,1361610.200000003,1361624.055,1362340.982,,,
stimulus,canvas.Screen,0_8_15_1,2022-07-15T14:44:17.914Z,,,,,,2,611.0179999999236,response,,0.485,0.495,,,https://raw.githubusercontent.com/carero2/loss-perception/main/png/0.485blue1yellowb%3D1w%3D100v%3D99.png,https://raw.githubusercontent.com/carero2/loss-perception/main/png/0.495blue1yellowb%3D1w%3D100v%3D99.png,,,,,,,,,true,f,keypress(f),0.495,0.485,true,1362953.600000009,1362952,1362107.324,1362348,1362340.982,1362990.538,,,
choice,canvas.Screen,0_8_15_2,2022-07-15T14:44:18.936Z,,,,0.485,,2,999.8930000001565,timeout,,,0.495,,0.495,,,-3,34,,,,,,,,,,,0.485,true,1363975.100000009,1363974.077,1362973.875,1362985.700000003,1362990.538,1363990.431,134,,
ITI,canvas.Screen,0_8_15_3,2022-07-15T14:44:19.435Z,,,2242,,,2,500.1579999998212,timeout,,,0.495,,,,,,,,,,,,,,,,,0.485,true,1364474.700000003,1364473.854,1363974.077,1363975.5,1363990.431,1364490.589,,,
trial,flow.Sequence,0_8_15,2022-07-15T14:44:19.436Z,,,,,,2,2849.7990000001155,completion,,,0.495,,,,,,,,,,,,,,,,,0.485,true,1364475.100000009,1364473.854,1361607.676,1361610.100000009,1361624.055,1364490.589,,,
fixation,canvas.Screen,0_8_16_0,2022-07-15T14:44:19.935Z,,,,,,6,783.0050000001211,timeout,,,0.515,,,,,,,,,,,,,,,,,0.485,true,1364974.400000006,1364973.666,1364473.854,1364475.5,1364490.589,1365273.594,,,
stimulus,canvas.Screen,0_8_16_1,2022-07-15T14:44:21.401Z,,,,,,6,1161.7059999969788,response,,0.485,0.515,,,https://raw.githubusercontent.com/carero2/loss-perception/main/png/0.485blue1yellowb%3D1w%3D100v%3D60.png,https://raw.githubusercontent.com/carero2/loss-perception/main/png/0.515blue1yellowb%3D1w%3D100v%3D60.png,,,,,,,,,true,j,keypress(j),0.515,0.485,true,1366440.400000006,1366435.299999997,1364973.666,1365282.299999997,1365273.594,1366456.757,,,
choice,canvas.Screen,0_8_16_2,2022-07-15T14:44:22.402Z,,,,0.515,,6,999.8919999999925,timeout,,,0.515,,0.485,,,3,37,,,,,,,,,,,0.485,true,1367441.100000009,1367440.143,1366440.299,1366451.900000006,1366456.757,1367456.649,137,,
ITI,canvas.Screen,0_8_16_3,2022-07-15T14:44:22.902Z,,,2895,,,6,499.91400000010617,timeout,,,0.515,,,,,,,,,,,,,,,,,0.485,true,1367941.200000003,1367939.995,1367440.143,1367441.299999997,1367456.649,1367956.563,,,
trial,flow.Sequence,0_8_16,2022-07-15T14:44:22.902Z,,,,,,6,3449.406000000192,completion,,,0.515,,,,,,,,,,,,,,,,,0.485,true,1367941.700000003,1367939.995,1364473.854,1364475.400000006,1364490.589,1367956.563,,,
fixation,canvas.Screen,0_8_17_0,2022-07-15T14:44:23.402Z,,,,,,6,716.6609999998473,timeout,,,0.485,,,,,,,,,,,,,,,,,0.455,false,1368440.900000006,1368440.147,1367939.995,1367941.900000006,1367956.563,1368673.224,,,
stimulus,canvas.Screen,0_8_17_1,2022-07-15T14:44:24.189Z,,,,,,6,553.976000003051,response,,0.485,0.485,,,https://raw.githubusercontent.com/carero2/loss-perception/main/png/0.485blue1yellowb%3D1w%3D100v%3D81.png,https://raw.githubusercontent.com/carero2/loss-perception/main/png/0.455blue1yellowb%3D1w%3D100v%3D81.png,,,,,,,,,true,f,keypress(f),0.455,0.455,false,1369228.5,1369227.200000003,1368440.147,1368678,1368673.224,1369256.54,,,
choice,canvas.Screen,0_8_17_2,2022-07-15T14:44:25.201Z,,,,0.485,,6,999.7590000000782,timeout,,,0.485,,0.455,,,-3,34,,,,,,,,,,,0.455,false,1370240.200000003,1370239.609,1369239.925,1369240.700000003,1369256.54,1370256.299,134,,
ITI,canvas.Screen,0_8_17_3,2022-07-15T14:44:25.701Z,,,2169,,,6,499.9199999999255,timeout,,,0.485,,,,,,,,,,,,,,,,,0.455,false,1370739.799999997,1370739.527,1370239.609,1370240.299999997,1370256.299,1370756.219,,,
trial,flow.Sequence,0_8_17,2022-07-15T14:44:25.701Z,,,,,,6,2782.96399999992,completion,,,0.485,,,,,,,,,,,,,,,,,0.455,false,1370740,1370739.527,1367939.995,1367941.799999997,1367956.563,1370756.219,,,
fixation,canvas.Screen,0_8_18_0,2022-07-15T14:44:26.201Z,,,,,,2,683.2339999999385,timeout,,,0.515,,,,,,,,,,,,,,,,,0.505,true,1371240,1371239.49,1370739.527,1370740.100000009,1370756.219,1371439.453,,,
stimulus,canvas.Screen,0_8_18_1,2022-07-15T14:44:26.931Z,,,,,,2,530.1470000089612,response,,0.505,0.515,,,https://raw.githubusercontent.com/carero2/loss-perception/main/png/0.505blue1yellowb%3D1w%3D100v%3D84.png,https://raw.githubusercontent.com/carero2/loss-perception/main/png/0.515blue1yellowb%3D1w%3D100v%3D84.png,,,,,,,,,true,f,keypress(f),0.515,0.505,true,1371970.5,1371969.600000009,1371239.49,1371445.299999997,1371439.453,1372006.039,,,
choice,canvas.Screen,0_8_18_2,2022-07-15T14:44:27.952Z,,,,0.505,,2,999.9279999998398,timeout,,,0.515,,0.515,,,1,35,,,,,,,,,,,0.505,true,1372990.900000006,1372989.315,1371989.363,1371988.5,1372006.039,1373005.967,135,,
ITI,canvas.Screen,0_8_18_3,2022-07-15T14:44:28.451Z,,,2499,,,2,500.0230000000447,timeout,,,0.515,,,,,,,,,,,,,,,,,0.505,true,1373490.299999997,1373489.464,1372989.315,1372991.400000006,1373005.967,1373505.99,,,
trial,flow.Sequence,0_8_18,2022-07-15T14:44:28.452Z,,,,,,2,2733.244999999879,completion,,,0.515,,,,,,,,,,,,,,,,,0.505,true,1373490.700000003,1373489.464,1370739.527,1370740,1370756.219,1373505.99,,,
fixation,canvas.Screen,0_8_19_0,2022-07-15T14:44:28.951Z,,,,,,2,799.7399999999907,timeout,,,0.505,,,,,,,,,,,,,,,,,0.495,true,1373990.100000009,1373989.244,1373489.464,1373490.900000006,1373505.99,1374305.73,,,
stimulus,canvas.Screen,0_8_19_1,2022-07-15T14:44:30.899Z,,,,,,2,1630.3700000089593,response,,0.495,0.505,,,https://raw.githubusercontent.com/carero2/loss-perception/main/png/0.495blue1yellowb%3D1w%3D100v%3D68.png,https://raw.githubusercontent.com/carero2/loss-perception/main/png/0.505blue1yellowb%3D1w%3D100v%3D68.png,,,,,,,,,true,f,keypress(f),0.505,0.495,true,1375937.700000003,1375936.100000009,1373989.244,1374314.100000009,1374305.73,1375955.536,,,
choice,canvas.Screen,0_8_19_2,2022-07-15T14:44:31.901Z,,,,0.495,,2,999.8680000000168,timeout,,,0.505,,0.505,,,-1,34,,,,,,,,,,,0.495,true,1376940,1376939.157,1375938.925,1375954.100000009,1375955.536,1376955.404,134,,
ITI,canvas.Screen,0_8_19_3,2022-07-15T14:44:32.401Z,,,2137,,,2,500.1489999999758,timeout,,,0.505,,,,,,,,,,,,,,,,,0.495,true,1377439.900000006,1377438.842,1376939.157,1376940.400000006,1376955.404,1377455.553,,,
trial,flow.Sequence,0_8_19,2022-07-15T14:44:32.401Z,,,,,,2,3932.8519999999553,completion,,,0.505,,,,,,,,,,,,,,,,,0.495,true,1377440.200000003,1377438.842,1373489.464,1373490.799999997,1373505.99,1377455.553,,,
fixation,canvas.Screen,0_8_20_0,2022-07-15T14:44:32.901Z,,,,,,4,749.7009999998845,timeout,,,0.51,,,,,,,,,,,,,,,,,0.49,false,1377940,1377938.726,1377438.842,1377440.400000006,1377455.553,1378205.254,,,
stimulus,canvas.Screen,0_8_20_1,2022-07-15T14:44:33.824Z,,,,,,4,655.9460000030231,response,,0.51,0.51,,,https://raw.githubusercontent.com/carero2/loss-perception/main/png/0.51blue1yellowb%3D1w%3D100v%3D34.png,https://raw.githubusercontent.com/carero2/loss-perception/main/png/0.49blue1yellowb%3D1w%3D100v%3D34.png,,,,,,,,,true,f,keypress(f),0.49,0.49,false,1378863.299999997,1378861.200000003,1377938.726,1378211.900000006,1378205.254,1378888.571,,,
choice,canvas.Screen,0_8_20_2,2022-07-15T14:44:34.833Z,,,,0.51,,4,999.7839999999851,timeout,,,0.51,,0.49,,,2,36,,,,,,,,,,,0.49,false,1379872.299999997,1379871.682,1378871.853,1378876.299999997,1378888.571,1379888.355,136,,
ITI,canvas.Screen,0_8_20_3,2022-07-15T14:44:35.334Z,,,2147,,,4,499.92599999997765,timeout,,,0.51,,,,,,,,,,,,,,,,,0.49,false,1380372.900000006,1380371.823,1379871.682,1379872.5,1379888.355,1380388.281,,,
trial,flow.Sequence,0_8_20,2022-07-15T14:44:35.335Z,,,,,,4,2916.2700000000186,completion,,,0.51,,,,,,,,,,,,,,,,,0.49,false,1380373.700000003,1380371.823,1377438.842,1377440.299999997,1377455.553,1380388.281,,,
fixation,canvas.Screen,0_8_21_0,2022-07-15T14:44:35.834Z,,,,,,4,716.5730000000913,timeout,,,0.49,,,,,,,,,,,,,,,,,0.47,false,1380872.700000003,1380871.888,1380371.823,1380373.900000006,1380388.281,1381104.854,,,
stimulus,canvas.Screen,0_8_21_1,2022-07-15T14:44:37.091Z,,,,,,4,1023.9459999969695,response,,0.49,0.49,,,https://raw.githubusercontent.com/carero2/loss-perception/main/png/0.49blue1yellowb%3D1w%3D100v%3D12.png,https://raw.githubusercontent.com/carero2/loss-perception/main/png/0.47blue1yellowb%3D1w%3D100v%3D12.png,,,,,,,,,true,f,keypress(f),0.47,0.47,false,1382130.299999997,1382128.799999997,1380871.888,1381111.5,1381104.854,1382154.731,,,
choice,canvas.Screen,0_8_21_2,2022-07-15T14:44:38.100Z,,,,0.49,,4,999.8520000001881,timeout,,,0.49,,0.47,,,-2,34,,,,,,,,,,,0.47,false,1383138.700000003,1383138.017,1382138.083,1382142.900000006,1382154.731,1383154.583,134,,
ITI,canvas.Screen,0_8_21_3,2022-07-15T14:44:38.600Z,,,2317,,,4,500.11699999985285,timeout,,,0.49,,,,,,,,,,,,,,,,,0.47,false,1383638.600000009,1383637.884,1383138.017,1383139.200000003,1383154.583,1383654.7,,,
trial,flow.Sequence,0_8_21,2022-07-15T14:44:38.600Z,,,,,,4,3249.603000000119,completion,,,0.49,,,,,,,,,,,,,,,,,0.47,false,1383639.200000003,1383637.884,1380371.823,1380373.799999997,1380388.281,1383654.7,,,
fixation,canvas.Screen,0_8_22_0,2022-07-15T14:44:39.099Z,,,,,,4,716.4850000001024,timeout,,,0.53,,,,,,,,,,,,,,,,,0.51,false,1384138.5,1384137.844,1383637.884,1383639.400000006,1383654.7,1384371.185,,,
stimulus,canvas.Screen,0_8_22_1,2022-07-15T14:44:39.799Z,,,,,,4,465.1149999969639,response,,0.53,0.53,,,https://raw.githubusercontent.com/carero2/loss-perception/main/png/0.53blue1yellowb%3D1w%3D100v%3D91.png,https://raw.githubusercontent.com/carero2/loss-perception/main/png/0.51blue1yellowb%3D1w%3D100v%3D91.png,,,,,,,,,true,f,keypress(f),0.51,0.51,false,1384837.799999997,1384836.299999997,1384137.844,1384380,1384371.185,1384854.369,,,
choice,canvas.Screen,0_8_22_2,2022-07-15T14:44:40.799Z,,,,0.53,,4,1000.1899999999441,timeout,,,0.53,,0.51,,,6,40,,,,,,,,,,,0.51,false,1385838.5,1385837.637,1384837.816,1384851.600000009,1384854.369,1385854.559,140,,
ITI,canvas.Screen,0_8_22_3,2022-07-15T14:44:41.300Z,,,2331,,,4,499.63400000007823,timeout,,,0.53,,,,,,,,,,,,,,,,,0.51,false,1386339.200000003,1386337.57,1385837.637,1385838.700000003,1385854.559,1386354.193,,,
trial,flow.Sequence,0_8_22,2022-07-15T14:44:41.301Z,,,,,,4,2682.8700000001118,completion,,,0.53,,,,,,,,,,,,,,,,,0.51,false,1386340.100000009,1386337.57,1383637.884,1383639.299999997,1383654.7,1386354.193,,,
fixation,canvas.Screen,0_8_23_0,2022-07-15T14:44:41.799Z,,,,,,6,749.939000000013,timeout,,,0.485,,,,,,,,,,,,,,,,,0.455,false,1386838.5,1386837.607,1386337.57,1386342.100000009,1386354.193,1387104.132,,,
stimulus,canvas.Screen,0_8_23_1,2022-07-15T14:44:48.181Z,,,,,,6,6111.368000000017,response,,0.485,0.485,,,https://raw.githubusercontent.com/carero2/loss-perception/main/png/0.485blue1yellowb%3D1w%3D100v%3D56.png,https://raw.githubusercontent.com/carero2/loss-perception/main/png/0.455blue1yellowb%3D1w%3D100v%3D56.png,,,,,,,,,true,f,keypress(f),0.455,0.455,false,1393220.299999997,1393215.5,1386837.607,1387108.700000003,1387104.132,1393236.609,,,
choice,canvas.Screen,0_8_23_2,2022-07-15T14:44:49.182Z,,,,0.485,,6,999.9660000000149,timeout,,,0.485,,0.455,,,-3,37,,,,,,,,,,,0.455,false,1394220.600000009,1394219.927,1393220.17,1393230.200000003,1393236.609,1394236.575,137,,
ITI,canvas.Screen,0_8_23_3,2022-07-15T14:44:49.683Z,,,2693,,,6,500.0590000001248,timeout,,,0.485,,,,,,,,,,,,,,,,,0.455,false,1394721.799999997,1394720.096,1394219.927,1394220.799999997,1394236.575,1394736.634,,,
trial,flow.Sequence,0_8_23,2022-07-15T14:44:49.683Z,,,,,,6,8365.902999999933,completion,,,0.485,,,,,,,,,,,,,,,,,0.455,false,1394722.299999997,1394720.096,1386337.57,1386341.600000009,1386354.193,1394736.634,,,
fixation,canvas.Screen,0_8_24_0,2022-07-15T14:44:50.182Z,,,,,,6,749.9449999998324,timeout,,,0.515,,,,,,,,,,,,,,,,,0.485,true,1395220.799999997,1395220.006,1394720.096,1394722.600000009,1394736.634,1395486.579,,,
stimulus,canvas.Screen,0_8_24_1,2022-07-15T14:44:51.364Z,,,,,,6,915.1210000030696,response,,0.485,0.515,,,https://raw.githubusercontent.com/carero2/loss-perception/main/png/0.485blue1yellowb%3D1w%3D100v%3D87.png,https://raw.githubusercontent.com/carero2/loss-perception/main/png/0.515blue1yellowb%3D1w%3D100v%3D87.png,,,,,,,,,true,j,keypress(j),0.515,0.485,true,1396403.200000003,1396401.700000003,1395220.006,1395491,1395486.579,1396419.527,,,
choice,canvas.Screen,0_8_24_2,2022-07-15T14:44:52.365Z,,,,0.515,,6,999.9590000000317,timeout,,,0.515,,0.485,,,3,40,,,,,,,,,,,0.485,true,1397403.700000003,1397402.878,1396402.934,1396416.5,1396419.527,1397419.486,140,,
ITI,canvas.Screen,0_8_24_3,2022-07-15T14:44:52.865Z,,,2719,,,6,500.1140000000596,timeout,,,0.515,,,,,,,,,,,,,,,,,0.485,true,1397903.700000003,1397902.965,1397402.878,1397404,1397419.486,1397919.6,,,
trial,flow.Sequence,0_8_24,2022-07-15T14:44:52.865Z,,,,,,6,3166.3310000000056,completion,,,0.515,,,,,,,,,,,,,,,,,0.485,true,1397904,1397902.965,1394720.096,1394722.5,1394736.634,1397919.6,,,
fixation,canvas.Screen,0_8_25_0,2022-07-15T14:44:53.365Z,,,,,,2,733.1089999999385,timeout,,,0.495,,,,,,,,,,,,,,,,,0.485,false,1398403.799999997,1398402.909,1397902.965,1397904.200000003,1397919.6,1398652.709,,,
stimulus,canvas.Screen,0_8_25_1,2022-07-15T14:44:55.013Z,,,,,,2,1394.891000008909,response,,0.495,0.495,,,https://raw.githubusercontent.com/carero2/loss-perception/main/png/0.495blue1yellowb%3D1w%3D100v%3D63.png,https://raw.githubusercontent.com/carero2/loss-perception/main/png/0.485blue1yellowb%3D1w%3D100v%3D63.png,,,,,,,,,true,f,keypress(f),0.485,0.485,false,1400052.600000009,1400047.600000009,1398402.909,1398657.299999997,1398652.709,1400069.068,,,
choice,canvas.Screen,0_8_25_2,2022-07-15T14:44:56.015Z,,,,0.495,,2,999.8829999999143,timeout,,,0.495,,0.485,,,-1,39,,,,,,,,,,,0.485,false,1401053.900000006,1401052.468,1400052.438,1400064.100000009,1400069.068,1401068.951,139,,
ITI,canvas.Screen,0_8_25_3,2022-07-15T14:44:56.514Z,,,2350,,,2,500.1790000000037,timeout,,,0.495,,,,,,,,,,,,,,,,,0.485,false,1401553.400000006,1401552.514,1401052.468,1401054.299999997,1401068.951,1401569.13,,,
trial,flow.Sequence,0_8_25,2022-07-15T14:44:56.515Z,,,,,,2,3632.9139999998733,completion,,,0.495,,,,,,,,,,,,,,,,,0.485,false,1401553.799999997,1401552.514,1397902.965,1397904.200000003,1397919.6,1401569.13,,,
fixation,canvas.Screen,0_8_26_0,2022-07-15T14:44:57.014Z,,,,,,6,716.563000000082,timeout,,,0.545,,,,,,,,,,,,,,,,,0.515,true,1402053.100000009,1402052.257,1401552.514,1401554.100000009,1401569.13,1402285.693,,,
stimulus,canvas.Screen,0_8_26_1,2022-07-15T14:44:58.055Z,,,,,,6,806.9070000089705,response,,0.515,0.545,,,https://raw.githubusercontent.com/carero2/loss-perception/main/png/0.515blue1yellowb%3D1w%3D100v%3D80.png,https://raw.githubusercontent.com/carero2/loss-perception/main/png/0.545blue1yellowb%3D1w%3D100v%3D80.png,,,,,,,,,true,j,keypress(j),0.545,0.515,true,1403093.700000003,1403092.600000009,1402052.257,1402290.299999997,1402285.693,1403118.903,,,
choice,canvas.Screen,0_8_26_2,2022-07-15T14:44:59.064Z,,,,0.545,,6,1000.0200000000186,timeout,,,0.545,,0.515,,,9,48,,,,,,,,,,,0.515,true,1404103,1404101.984,1403102.315,1403107.700000003,1403118.903,1404118.923,148,,
ITI,canvas.Screen,0_8_26_3,2022-07-15T14:44:59.564Z,,,2971,,,6,499.6010000000242,timeout,,,0.545,,,,,,,,,,,,,,,,,0.515,true,1404602.900000006,1404601.989,1404101.984,1404103.299999997,1404118.923,1404618.524,,,
trial,flow.Sequence,0_8_26,2022-07-15T14:44:59.564Z,,,,,,6,3032.8590000001714,completion,,,0.545,,,,,,,,,,,,,,,,,0.515,true,1404603.299999997,1404601.989,1401552.514,1401554,1401569.13,1404618.524,,,
fixation,canvas.Screen,0_8_27_0,2022-07-15T14:45:00.064Z,,,,,,4,716.5109999999404,timeout,,,0.53,,,,,,,,,,,,,,,,,0.51,false,1405102.900000006,1405101.868,1404601.989,1404603.600000009,1404618.524,1405335.035,,,
stimulus,canvas.Screen,0_8_27_1,2022-07-15T14:45:01.022Z,,,,,,4,723.7649999971036,response,,0.53,0.53,,,https://raw.githubusercontent.com/carero2/loss-perception/main/png/0.53blue1yellowb%3D1w%3D100v%3D28.png,https://raw.githubusercontent.com/carero2/loss-perception/main/png/0.51blue1yellowb%3D1w%3D100v%3D28.png,,,,,,,,,true,f,keypress(f),0.51,0.51,false,1406060.600000009,1406058.799999997,1405101.868,1405342.400000006,1405335.035,1406085.014,,,
choice,canvas.Screen,0_8_27_2,2022-07-15T14:45:02.030Z,,,,0.53,,4,999.9129999999423,timeout,,,0.53,,0.51,,,6,54,,,,,,,,,,,0.51,false,1407069.200000003,1407068.367,1406068.422,1406072.700000003,1406085.014,1407084.927,154,,
ITI,canvas.Screen,0_8_27_3,2022-07-15T14:45:02.531Z,,,2215,,,4,500.34799999999814,timeout,,,0.53,,,,,,,,,,,,,,,,,0.51,false,1407569.799999997,1407568.403,1407068.367,1407069.5,1407084.927,1407585.275,,,
trial,flow.Sequence,0_8_27,2022-07-15T14:45:02.531Z,,,,,,4,2949.878999999957,completion,,,0.53,,,,,,,,,,,,,,,,,0.51,false,1407570.400000006,1407568.403,1404601.989,1404603.5,1404618.524,1407585.275,,,
fixation,canvas.Screen,0_8_28_0,2022-07-15T14:45:03.030Z,,,,,,6,732.9670000001788,timeout,,,0.515,,,,,,,,,,,,,,,,,0.485,false,1408069.200000003,1408068.323,1407568.403,1407570.700000003,1407585.275,1408318.242,,,
stimulus,canvas.Screen,0_8_28_1,2022-07-15T14:45:03.916Z,,,,,,6,635.0579999969341,response,,0.515,0.515,,,https://raw.githubusercontent.com/carero2/loss-perception/main/png/0.515blue1yellowb%3D1w%3D100v%3D40.png,https://raw.githubusercontent.com/carero2/loss-perception/main/png/0.485blue1yellowb%3D1w%3D100v%3D40.png,,,,,,,,,true,f,keypress(f),0.485,0.485,false,1408955,1408953.299999997,1408068.323,1408323.700000003,1408318.242,1408984.666,,,
choice,canvas.Screen,0_8_28_2,2022-07-15T14:45:04.929Z,,,,0.515,,6,999.7849999999162,timeout,,,0.515,,0.485,,,3,57,,,,,,,,,,,0.485,false,1409968.200000003,1409967.801,1408968.222,1408970.5,1408984.666,1409984.451,157,,
ITI,canvas.Screen,0_8_28_3,2022-07-15T14:45:05.429Z,,,2545,,,6,500.1630000001751,timeout,,,0.515,,,,,,,,,,,,,,,,,0.485,false,1410468.100000009,1410467.702,1409967.801,1409968.5,1409984.451,1410484.614,,,
trial,flow.Sequence,0_8_28,2022-07-15T14:45:05.429Z,,,,,,6,2882.4270000001416,completion,,,0.515,,,,,,,,,,,,,,,,,0.485,false,1410468.5,1410467.702,1407568.403,1407570.700000003,1407585.275,1410484.614,,,
fixation,canvas.Screen,0_8_29_0,2022-07-15T14:45:05.929Z,,,,,,2,749.6829999999609,timeout,,,0.495,,,,,,,,,,,,,,,,,0.485,true,1410968.100000009,1410967.642,1410467.702,1410468.600000009,1410484.614,1411234.297,,,
stimulus,canvas.Screen,0_8_29_1,2022-07-15T14:45:06.835Z,,,,,,2,638.4030000029597,response,,0.485,0.495,,,https://raw.githubusercontent.com/carero2/loss-perception/main/png/0.485blue1yellowb%3D1w%3D100v%3D45.png,https://raw.githubusercontent.com/carero2/loss-perception/main/png/0.495blue1yellowb%3D1w%3D100v%3D45.png,,,,,,,,,true,j,keypress(j),0.495,0.485,true,1411873.700000003,1411872.700000003,1410967.642,1411238.900000006,1411234.297,1411900.936,,,
choice,canvas.Screen,0_8_29_2,2022-07-15T14:45:07.847Z,,,,0.495,,2,999.7870000000112,timeout,,,0.495,,0.485,,,-1,56,,,,,,,,,,,0.485,true,1412885.700000003,1412884.153,1411884.261,1411898.700000003,1411900.936,1412900.723,156,,
ITI,canvas.Screen,0_8_29_3,2022-07-15T14:45:08.346Z,,,2387,,,2,500.3410000000149,timeout,,,0.495,,,,,,,,,,,,,,,,,0.485,true,1413384.900000006,1413384.156,1412884.153,1412886.100000009,1412900.723,1413401.064,,,
trial,flow.Sequence,0_8_29,2022-07-15T14:45:08.346Z,,,,,,2,2899.5419999998994,completion,,,0.495,,,,,,,,,,,,,,,,,0.485,true,1413385.299999997,1413384.156,1410467.702,1410468.5,1410484.614,1413401.064,,,
fixation,canvas.Screen,0_8_30_0,2022-07-15T14:45:08.847Z,,,,,,6,716.2229999999981,timeout,,,0.545,,,,,,,,,,,,,,,,,0.515,false,1413886.100000009,1413883.929,1413384.156,1413385.400000006,1413401.064,1414117.287,,,
stimulus,canvas.Screen,0_8_30_1,2022-07-15T14:45:09.679Z,,,,,,6,599.913000002969,response,,0.545,0.545,,,https://raw.githubusercontent.com/carero2/loss-perception/main/png/0.545blue1yellowb%3D1w%3D100v%3D22.png,https://raw.githubusercontent.com/carero2/loss-perception/main/png/0.515blue1yellowb%3D1w%3D100v%3D22.png,,,,,,,,,true,f,keypress(f),0.515,0.515,false,1414718.299999997,1414717.200000003,1413883.929,1414125.700000003,1414117.287,1414733.814,,,
choice,canvas.Screen,0_8_30_2,2022-07-15T14:45:10.679Z,,,,0.545,,6,1000.3670000000857,timeout,,,0.545,,0.515,,,9,65,,,,,,,,,,,0.515,false,1415718.400000006,1415717.372,1414717.09,1414729.700000003,1414733.814,1415734.181,165,,
ITI,canvas.Screen,0_8_30_3,2022-07-15T14:45:11.179Z,,,2819,,,6,499.45899999979883,timeout,,,0.545,,,,,,,,,,,,,,,,,0.515,false,1416218,1416217.081,1415717.372,1415718.900000006,1415734.181,1416233.64,,,
trial,flow.Sequence,0_8_30,2022-07-15T14:45:11.179Z,,,,,,6,2816.0169999999925,completion,,,0.545,,,,,,,,,,,,,,,,,0.515,false,1416218.400000006,1416217.081,1413384.156,1413385.400000006,1413401.064,1416233.64,,,
fixation,canvas.Screen,0_8_31_0,2022-07-15T14:45:11.679Z,,,,,,2,749.9450000000652,timeout,,,0.515,,,,,,,,,,,,,,,,,0.505,true,1416718.100000009,1416717.174,1416217.081,1416218.700000003,1416233.64,1416983.585,,,
stimulus,canvas.Screen,0_8_31_1,2022-07-15T14:45:13.247Z,,,,,,2,1301.214999997057,response,,0.505,0.515,,,https://raw.githubusercontent.com/carero2/loss-perception/main/png/0.505blue1yellowb%3D1w%3D100v%3D71.png,https://raw.githubusercontent.com/carero2/loss-perception/main/png/0.515blue1yellowb%3D1w%3D100v%3D71.png,,,,,,,,,true,j,keypress(j),0.515,0.505,true,1418286.299999997,1418284.799999997,1416717.174,1416989.100000009,1416983.585,1418300.043,,,
choice,canvas.Screen,0_8_31_2,2022-07-15T14:45:14.245Z,,,,0.515,,2,999.964999999851,timeout,,,0.515,,0.505,,,3,68,,,,,,,,,,,0.505,true,1419284.299999997,1419283.333,1418283.683,1418298.200000003,1418300.043,1419300.008,168,,
ITI,canvas.Screen,0_8_31_3,2022-07-15T14:45:14.745Z,,,2440,,,2,499.83400000003166,timeout,,,0.515,,,,,,,,,,,,,,,,,0.505,true,1419784.400000006,1419783.422,1419283.333,1419284.5,1419300.008,1419799.842,,,
trial,flow.Sequence,0_8_31,2022-07-15T14:45:14.746Z,,,,,,2,3549.782000000123,completion,,,0.515,,,,,,,,,,,,,,,,,0.505,true,1419785.100000009,1419783.422,1416217.081,1416218.700000003,1416233.64,1419799.842,,,
fixation,canvas.Screen,0_8_32_0,2022-07-15T14:45:15.245Z,,,,,,4,700.1850000000559,timeout,,,0.51,,,,,,,,,,,,,,,,,0.49,true,1420284.200000003,1420283.273,1419783.422,1419785.400000006,1419799.842,1420500.027,,,
stimulus,canvas.Screen,0_8_32_1,2022-07-15T14:45:16.951Z,,,,,,4,1488.5730000089388,response,,0.49,0.51,,,https://raw.githubusercontent.com/carero2/loss-perception/main/png/0.49blue1yellowb%3D1w%3D100v%3D49.png,https://raw.githubusercontent.com/carero2/loss-perception/main/png/0.51blue1yellowb%3D1w%3D100v%3D49.png,,,,,,,,,true,j,keypress(j),0.51,0.49,true,1421989.900000006,1421988.600000009,1420283.273,1420509.100000009,1420500.027,1422016.476,,,
choice,canvas.Screen,0_8_32_2,2022-07-15T14:45:17.961Z,,,,0.51,,4,999.966999999946,timeout,,,0.51,,0.49,,,2,70,,,,,,,,,,,0.49,true,1423000.400000006,1422999.491,1421999.827,1422001.600000009,1422016.476,1423016.443,170,,
ITI,canvas.Screen,0_8_32_3,2022-07-15T14:45:18.461Z,,,2384,,,4,499.752000000095,timeout,,,0.51,,,,,,,,,,,,,,,,,0.49,true,1423500.5,1423499.659,1422999.491,1423001.299999997,1423016.443,1423516.195,,,
trial,flow.Sequence,0_8_32,2022-07-15T14:45:18.462Z,,,,,,4,3699.817000000039,completion,,,0.51,,,,,,,,,,,,,,,,,0.49,true,1423500.900000006,1423499.659,1419783.422,1419785.400000006,1419799.842,1423516.195,,,
fixation,canvas.Screen,0_8_33_0,2022-07-15T14:45:18.961Z,,,,,,4,849.8059999998659,timeout,,,0.49,,,,,,,,,,,,,,,,,0.47,true,1424000.400000006,1423999.539,1423499.659,1423501,1423516.195,1424366.001,,,
stimulus,canvas.Screen,0_8_33_1,2022-07-15T14:45:20.662Z,,,,,,4,1334.0990000090096,response,,0.47,0.49,,,https://raw.githubusercontent.com/carero2/loss-perception/main/png/0.47blue1yellowb%3D1w%3D100v%3D94.png,https://raw.githubusercontent.com/carero2/loss-perception/main/png/0.49blue1yellowb%3D1w%3D100v%3D94.png,,,,,,,,,true,j,keypress(j),0.49,0.47,true,1425701.100000009,1425700.100000009,1423999.539,1424374,1424366.001,1425732.648,,,
choice,canvas.Screen,0_8_33_2,2022-07-15T14:45:21.678Z,,,,0.49,,4,999.9420000000391,timeout,,,0.49,,0.47,,,-2,68,,,,,,,,,,,0.47,true,1426716.900000006,1426715.923,1425699.418,1425715.299999997,1425732.648,1426732.59,168,,
ITI,canvas.Screen,0_8_33_3,2022-07-15T14:45:22.178Z,,,2367,,,4,499.6790000000037,timeout,,,0.49,,,,,,,,,,,,,,,,,0.47,true,1427217.400000006,1427215.848,1426715.923,1426717.100000009,1426732.59,1427232.269,,,
trial,flow.Sequence,0_8_33,2022-07-15T14:45:22.179Z,,,,,,4,3699.652999999933,completion,,,0.49,,,,,,,,,,,,,,,,,0.47,true,1427217.900000006,1427215.848,1423499.659,1423500.900000006,1423516.195,1427232.269,,,
fixation,canvas.Screen,0_8_34_0,2022-07-15T14:45:22.677Z,,,,,,6,733.2289999998175,timeout,,,0.485,,,,,,,,,,,,,,,,,0.455,false,1427716.400000006,1427715.53,1427215.848,1427218.100000009,1427232.269,1427965.498,,,
stimulus,canvas.Screen,0_8_34_1,2022-07-15T14:45:23.637Z,,,,,,6,709.3019999971148,response,,0.485,0.485,,,https://raw.githubusercontent.com/carero2/loss-perception/main/png/0.485blue1yellowb%3D1w%3D100v%3D44.png,https://raw.githubusercontent.com/carero2/loss-perception/main/png/0.455blue1yellowb%3D1w%3D100v%3D44.png,,,,,,,,,true,f,keypress(f),0.455,0.455,false,1428675.900000006,1428674.799999997,1427715.53,1427970.5,1427965.498,1428699.098,,,
choice,canvas.Screen,0_8_34_2,2022-07-15T14:45:24.644Z,,,,0.485,,6,999.441000000108,timeout,,,0.485,,0.455,,,-3,65,,,,,,,,,,,0.455,false,1429683.5,1429682.166,1428682.325,1428692.299999997,1428699.098,1429698.539,165,,
ITI,canvas.Screen,0_8_34_3,2022-07-15T14:45:25.143Z,,,2342,,,6,499.9759999997914,timeout,,,0.485,,,,,,,,,,,,,,,,,0.455,false,1430182.400000006,1430181.845,1429682.166,1429684,1429698.539,1430198.515,,,
trial,flow.Sequence,0_8_34,2022-07-15T14:45:25.143Z,,,,,,6,2949.5759999998845,completion,,,0.485,,,,,,,,,,,,,,,,,0.455,false,1430182.5,1430181.845,1427215.848,1427218.100000009,1427232.269,1430198.515,,,
fixation,canvas.Screen,0_8_35_0,2022-07-15T14:45:25.643Z,,,,,,2,699.972000000067,timeout,,,0.505,,,,,,,,,,,,,,,,,0.495,false,1430682.700000003,1430681.981,1430181.845,1430182.600000009,1430198.515,1430898.487,,,
stimulus,canvas.Screen,0_8_35_1,2022-07-15T14:45:26.449Z,,,,,,2,588.6130000089761,response,,0.505,0.505,,,https://raw.githubusercontent.com/carero2/loss-perception/main/png/0.505blue1yellowb%3D1w%3D100v%3D16.png,https://raw.githubusercontent.com/carero2/loss-perception/main/png/0.495blue1yellowb%3D1w%3D100v%3D16.png,,,,,,,,,true,f,keypress(f),0.495,0.495,false,1431488.100000009,1431487.100000009,1430681.981,1430903.100000009,1430898.487,1431515.25,,,
choice,canvas.Screen,0_8_35_2,2022-07-15T14:45:27.461Z,,,,0.505,,2,999.5879999999888,timeout,,,0.505,,0.495,,,1,66,,,,,,,,,,,0.495,false,1432500,1432498.308,1431498.403,1431499.600000009,1431515.25,1432514.838,166,,
ITI,canvas.Screen,0_8_35_3,2022-07-15T14:45:27.960Z,,,2199,,,2,500.17800000007264,timeout,,,0.505,,,,,,,,,,,,,,,,,0.495,false,1432999.299999997,1432998.422,1432498.308,1432500.400000006,1432514.838,1433015.016,,,
trial,flow.Sequence,0_8_35,2022-07-15T14:45:27.961Z,,,,,,2,2799.907000000123,completion,,,0.505,,,,,,,,,,,,,,,,,0.495,false,1432999.799999997,1432998.422,1430181.845,1430182.600000009,1430198.515,1433015.016,,,
fixation,canvas.Screen,0_8_36_0,2022-07-15T14:45:28.460Z,,,,,,4,766.5270000000019,timeout,,,0.49,,,,,,,,,,,,,,,,,0.47,true,1433499,1433498.213,1432998.422,1433000.100000009,1433015.016,1433781.543,,,
stimulus,canvas.Screen,0_8_36_1,2022-07-15T14:45:30.118Z,,,,,,4,1373.5570000088774,response,,0.47,0.49,,,https://raw.githubusercontent.com/carero2/loss-perception/main/png/0.47blue1yellowb%3D1w%3D100v%3D3.png,https://raw.githubusercontent.com/carero2/loss-perception/main/png/0.49blue1yellowb%3D1w%3D100v%3D3.png,,,,,,,,,true,j,keypress(j),0.49,0.47,true,1435157,1435155.100000009,1433498.213,1433788.299999997,1433781.543,1435181.251,,,
choice,canvas.Screen,0_8_36_2,2022-07-15T14:45:31.126Z,,,,0.49,,4,999.8479999999981,timeout,,,0.49,,0.47,,,-2,64,,,,,,,,,,,0.47,true,1436165.299999997,1436164.49,1435164.745,1435169.900000006,1435181.251,1436181.099,164,,
ITI,canvas.Screen,0_8_36_3,2022-07-15T14:45:31.626Z,,,2826,,,4,499.971000000136,timeout,,,0.49,,,,,,,,,,,,,,,,,0.47,true,1436665.400000006,1436664.518,1436164.49,1436165.700000003,1436181.099,1436681.07,,,
trial,flow.Sequence,0_8_36,2022-07-15T14:45:31.627Z,,,,,,4,3649.501999999862,completion,,,0.49,,,,,,,,,,,,,,,,,0.47,true,1436666,1436664.518,1432998.422,1433000,1433015.016,1436681.07,,,
fixation,canvas.Screen,0_8_37_0,2022-07-15T14:45:32.126Z,,,,,,6,750.0549999999348,timeout,,,0.545,,,,,,,,,,,,,,,,,0.515,true,1437165.200000003,1437164.369,1436664.518,1436666.200000003,1436681.07,1437431.125,,,
stimulus,canvas.Screen,0_8_37_1,2022-07-15T14:45:33.416Z,,,,,,6,1022.7750000059605,response,,0.515,0.545,,,https://raw.githubusercontent.com/carero2/loss-perception/main/png/0.515blue1yellowb%3D1w%3D100v%3D34.png,https://raw.githubusercontent.com/carero2/loss-perception/main/png/0.545blue1yellowb%3D1w%3D100v%3D34.png,,,,,,,,,true,j,keypress(j),0.545,0.515,true,1438455.200000003,1438453.900000006,1437164.369,1437436.5,1437431.125,1438480.874,,,
choice,canvas.Screen,0_8_37_2,2022-07-15T14:45:34.426Z,,,,0.545,,6,999.8459999999031,timeout,,,0.545,,0.515,,,9,73,,,,,,,,,,,0.515,true,1439465.600000009,1439464.247,1438463.846,1438471.799999997,1438480.874,1439480.72,173,,
ITI,canvas.Screen,0_8_37_3,2022-07-15T14:45:34.926Z,,,2122,,,6,500.0900000000838,timeout,,,0.545,,,,,,,,,,,,,,,,,0.515,true,1439964.900000006,1439964.12,1439464.247,1439466.100000009,1439480.72,1439980.81,,,
trial,flow.Sequence,0_8_37,2022-07-15T14:45:34.926Z,,,,,,6,3283.0500000000466,completion,,,0.545,,,,,,,,,,,,,,,,,0.515,true,1439965.200000003,1439964.12,1436664.518,1436666.200000003,1436681.07,1439980.81,,,
fixation,canvas.Screen,0_8_38_0,2022-07-15T14:45:35.426Z,,,,,,4,699.9229999999516,timeout,,,0.51,,,,,,,,,,,,,,,,,0.49,false,1440465,1440464.11,1439964.12,1439965.5,1439980.81,1440680.733,,,
stimulus,canvas.Screen,0_8_38_1,2022-07-15T14:45:36.427Z,,,,,,4,783.4670000029728,response,,0.51,0.51,,,https://raw.githubusercontent.com/carero2/loss-perception/main/png/0.51blue1yellowb%3D1w%3D100v%3D36.png,https://raw.githubusercontent.com/carero2/loss-perception/main/png/0.49blue1yellowb%3D1w%3D100v%3D36.png,,,,,,,,,true,f,keypress(f),0.49,0.49,false,1441465.900000006,1441464.200000003,1440464.11,1440685.100000009,1440680.733,1441497.317,,,
choice,canvas.Screen,0_8_38_2,2022-07-15T14:45:37.442Z,,,,0.51,,4,999.8680000000168,timeout,,,0.51,,0.49,,,2,75,,,,,,,,,,,0.49,false,1442481.5,1442480.546,1441480.715,1441481.400000006,1441497.317,1442497.185,175,,
ITI,canvas.Screen,0_8_38_3,2022-07-15T14:45:37.943Z,,,2966,,,4,499.96799999987707,timeout,,,0.51,,,,,,,,,,,,,,,,,0.49,false,1442982,1442980.495,1442480.546,1442481.700000003,1442497.185,1442997.153,,,
trial,flow.Sequence,0_8_38,2022-07-15T14:45:37.943Z,,,,,,4,2999.685000000056,completion,,,0.51,,,,,,,,,,,,,,,,,0.49,false,1442982.5,1442980.495,1439964.12,1439965.400000006,1439980.81,1442997.153,,,
fixation,canvas.Screen,0_8_39_0,2022-07-15T14:45:38.442Z,,,,,,2,733.1520000000019,timeout,,,0.515,,,,,,,,,,,,,,,,,0.505,true,1443481.100000009,1443480.201,1442980.495,1442982.900000006,1442997.153,1443730.305,,,
stimulus,canvas.Screen,0_8_39_1,2022-07-15T14:45:40.239Z,,,,,,2,1547.0950000060257,response,,0.505,0.515,,,https://raw.githubusercontent.com/carero2/loss-perception/main/png/0.505blue1yellowb%3D1w%3D100v%3D1.png,https://raw.githubusercontent.com/carero2/loss-perception/main/png/0.515blue1yellowb%3D1w%3D100v%3D1.png,,,,,,,,,true,j,keypress(j),0.515,0.505,true,1445278.400000006,1445277.400000006,1443480.201,1443736.5,1443730.305,1445296.519,,,
choice,canvas.Screen,0_8_39_2,2022-07-15T14:45:41.242Z,,,,0.515,,2,1000.2019999998156,timeout,,,0.515,,0.505,,,3,78,,,,,,,,,,,0.505,true,1446281.100000009,1446279.891,1445280.005,1445290.799999997,1445296.519,1446296.721,178,,
ITI,canvas.Screen,0_8_39_3,2022-07-15T14:45:41.741Z,,,2090,,,2,499.6030000001192,timeout,,,0.515,,,,,,,,,,,,,,,,,0.505,true,1446780.700000003,1446779.825,1446279.891,1446281.400000006,1446296.721,1446796.324,,,
trial,flow.Sequence,0_8_39,2022-07-15T14:45:41.742Z,,,,,,2,3782.6720000000205,completion,,,0.515,,,,,,,,,,,,,,,,,0.505,true,1446781.200000003,1446779.825,1442980.495,1442982.700000003,1442997.153,1446796.324,,,
fixation,canvas.Screen,0_8_40_0,2022-07-15T14:45:42.242Z,,,,,,2,883.4790000000503,timeout,,,0.505,,,,,,,,,,,,,,,,,0.495,true,1447280.900000006,1447279.909,1446779.825,1446781.5,1446796.324,1447679.803,,,
stimulus,canvas.Screen,0_8_40_1,2022-07-15T14:45:43.856Z,,,,,,2,1213.5970000058878,response,,0.495,0.505,,,https://raw.githubusercontent.com/carero2/loss-perception/main/png/0.495blue1yellowb%3D1w%3D100v%3D60.png,https://raw.githubusercontent.com/carero2/loss-perception/main/png/0.505blue1yellowb%3D1w%3D100v%3D60.png,,,,,,,,,true,j,keypress(j),0.505,0.495,true,1448895.200000003,1448893.400000006,1447279.909,1447684.400000006,1447679.803,1448912.732,,,
choice,canvas.Screen,0_8_40_2,2022-07-15T14:45:44.858Z,,,,0.505,,2,1000.0479999999516,timeout,,,0.505,,0.495,,,1,79,,,,,,,,,,,0.495,true,1449896.900000006,1449896.099,1448896.385,1448910.700000003,1448912.732,1449912.78,179,,
ITI,canvas.Screen,0_8_40_3,2022-07-15T14:45:45.358Z,,,2867,,,2,499.905999999959,timeout,,,0.505,,,,,,,,,,,,,,,,,0.495,true,1450396.900000006,1450395.982,1449896.099,1449897.200000003,1449912.78,1450412.686,,,
trial,flow.Sequence,0_8_40,2022-07-15T14:45:45.358Z,,,,,,2,3599.658000000054,completion,,,0.505,,,,,,,,,,,,,,,,,0.495,true,1450397.299999997,1450395.982,1446779.825,1446781.400000006,1446796.324,1450412.686,,,
fixation,canvas.Screen,0_8_41_0,2022-07-15T14:45:45.858Z,,,,,,2,766.5230000000447,timeout,,,0.495,,,,,,,,,,,,,,,,,0.485,true,1450896.900000006,1450896.113,1450395.982,1450397.5,1450412.686,1451179.209,,,
stimulus,canvas.Screen,0_8_41_1,2022-07-15T14:45:47.192Z,,,,,,2,1047.590999996988,response,,0.485,0.495,,,https://raw.githubusercontent.com/carero2/loss-perception/main/png/0.485blue1yellowb%3D1w%3D100v%3D37.png,https://raw.githubusercontent.com/carero2/loss-perception/main/png/0.495blue1yellowb%3D1w%3D100v%3D37.png,,,,,,,,,true,j,keypress(j),0.495,0.485,true,1452231.299999997,1452226.799999997,1450896.113,1451183.799999997,1451179.209,1452245.625,,,
choice,canvas.Screen,0_8_41_2,2022-07-15T14:45:48.191Z,,,,0.495,,2,1000.1980000000913,timeout,,,0.495,,0.485,,,-1,78,,,,,,,,,,,0.485,true,1453230.100000009,1453228.984,1452229.409,1452241.400000006,1452245.625,1453245.823,178,,
ITI,canvas.Screen,0_8_41_3,2022-07-15T14:45:48.691Z,,,2340,,,2,499.6959999999963,timeout,,,0.495,,,,,,,,,,,,,,,,,0.485,true,1453730.100000009,1453729.047,1453228.984,1453230.5,1453245.823,1453745.519,,,
trial,flow.Sequence,0_8_41,2022-07-15T14:45:48.691Z,,,,,,2,3316.3610000000335,completion,,,0.495,,,,,,,,,,,,,,,,,0.485,true,1453730.600000009,1453729.047,1450395.982,1450397.400000006,1450412.686,1453745.519,,,
fixation,canvas.Screen,0_8_42_0,2022-07-15T14:45:49.191Z,,,,,,4,716.6629999999423,timeout,,,0.53,,,,,,,,,,,,,,,,,0.51,false,1454229.799999997,1454228.992,1453729.047,1453730.799999997,1453745.519,1454462.182,,,
stimulus,canvas.Screen,0_8_42_1,2022-07-15T14:45:50.100Z,,,,,,4,675.0180000029504,response,,0.53,0.53,,,https://raw.githubusercontent.com/carero2/loss-perception/main/png/0.53blue1yellowb%3D1w%3D100v%3D41.png,https://raw.githubusercontent.com/carero2/loss-perception/main/png/0.51blue1yellowb%3D1w%3D100v%3D41.png,,,,,,,,,true,f,keypress(f),0.51,0.51,false,1455138.799999997,1455137.200000003,1454228.992,1454467.799999997,1454462.182,1455161.905,,,
choice,canvas.Screen,0_8_42_2,2022-07-15T14:45:51.107Z,,,,0.53,,4,1000.2469999999739,timeout,,,0.53,,0.51,,,6,84,,,,,,,,,,,0.51,false,1456146.200000003,1456145.308,1455145.295,1455150.5,1455161.905,1456162.152,184,,
ITI,canvas.Screen,0_8_42_3,2022-07-15T14:45:51.607Z,,,2481,,,4,499.8389999999199,timeout,,,0.53,,,,,,,,,,,,,,,,,0.51,false,1456646.200000003,1456645.185,1456145.308,1456146.5,1456162.152,1456661.991,,,
trial,flow.Sequence,0_8_42,2022-07-15T14:45:51.607Z,,,,,,4,2899.6659999999683,completion,,,0.53,,,,,,,,,,,,,,,,,0.51,false,1456646.700000003,1456645.185,1453729.047,1453730.799999997,1453745.519,1456661.991,,,
fixation,canvas.Screen,0_8_43_0,2022-07-15T14:45:52.107Z,,,,,,6,716.435999999987,timeout,,,0.515,,,,,,,,,,,,,,,,,0.485,true,1457146,1457145.161,1456645.185,1456646.900000006,1456661.991,1457378.427,,,
stimulus,canvas.Screen,0_8_43_1,2022-07-15T14:45:53.155Z,,,,,,6,814.872999997111,response,,0.485,0.515,,,https://raw.githubusercontent.com/carero2/loss-perception/main/png/0.485blue1yellowb%3D1w%3D100v%3D51.png,https://raw.githubusercontent.com/carero2/loss-perception/main/png/0.515blue1yellowb%3D1w%3D100v%3D51.png,,,,,,,,,true,j,keypress(j),0.515,0.485,true,1458194.5,1458193.299999997,1457145.161,1457384.700000003,1457378.427,1458211.511,,,
choice,canvas.Screen,0_8_43_2,2022-07-15T14:45:54.156Z,,,,0.515,,6,1000.0200000000186,timeout,,,0.515,,0.485,,,3,87,,,,,,,,,,,0.485,true,1459195.700000003,1459194.771,1458195.269,1458203.600000009,1458211.511,1459211.531,187,,
ITI,canvas.Screen,0_8_43_3,2022-07-15T14:45:54.657Z,,,2024,,,6,499.95100000011735,timeout,,,0.515,,,,,,,,,,,,,,,,,0.485,true,1459695.799999997,1459695.025,1459194.771,1459196.100000009,1459211.531,1459711.482,,,
trial,flow.Sequence,0_8_43,2022-07-15T14:45:54.657Z,,,,,,6,3033.033999999985,completion,,,0.515,,,,,,,,,,,,,,,,,0.485,true,1459696.299999997,1459695.025,1456645.185,1456646.799999997,1456661.991,1459711.482,,,
fixation,canvas.Screen,0_8_44_0,2022-07-15T14:45:55.157Z,,,,,,6,699.8240000000224,timeout,,,0.485,,,,,,,,,,,,,,,,,0.455,false,1460195.799999997,1460194.941,1459695.025,1459696.5,1459711.482,1460411.306,,,
stimulus,canvas.Screen,0_8_44_1,2022-07-15T14:45:55.900Z,,,,,,6,526.1939999999013,response,,0.485,0.485,,,https://raw.githubusercontent.com/carero2/loss-perception/main/png/0.485blue1yellowb%3D1w%3D100v%3D67.png,https://raw.githubusercontent.com/carero2/loss-perception/main/png/0.455blue1yellowb%3D1w%3D100v%3D67.png,,,,,,,,,true,f,keypress(f),0.455,0.455,false,1460939,1460937.5,1460194.941,1460416.200000003,1460411.306,1460961.162,,,
choice,canvas.Screen,0_8_44_2,2022-07-15T14:45:56.906Z,,,,0.485,,6,1000.2339999999385,timeout,,,0.485,,0.455,,,-3,84,,,,,,,,,,,0.455,false,1461945.400000006,1461944.555,1460944.671,1460949.900000006,1460961.162,1461961.396,184,,
ITI,canvas.Screen,0_8_44_3,2022-07-15T14:45:57.406Z,,,2521,,,6,499.60800000000745,timeout,,,0.485,,,,,,,,,,,,,,,,,0.455,false,1462445.700000003,1462444.652,1461944.555,1461945.700000003,1461961.396,1462461.004,,,
trial,flow.Sequence,0_8_44,2022-07-15T14:45:57.407Z,,,,,,6,2733.1699999999255,completion,,,0.485,,,,,,,,,,,,,,,,,0.455,false,1462446.299999997,1462444.652,1459695.025,1459696.400000006,1459711.482,1462461.004,,,
1st block,flow.Loop,0_8,2022-07-15T14:45:57.407Z,,,,,,,152663.46999999997,completion,,,,,,,,,,,,,,,,,,,,,,1462446.5,1462444.652,1309764.193,1309768.100000009,1309781.182,1462461.004,,,
show amount,html.Screen,0_9,2022-07-15T14:46:03.511Z,,,,,,,6085.396000006003,response,,,,,,,,,,,,,,,,,Continue,click #Continue,,,,1468550.600000009,1468546.400000006,1462444.652,1462447.900000006,1462461.004,1468560.18,,,
second block,canvas.Screen,0_10,2022-07-15T14:46:04.706Z,,,,,,,1183.420000009006,response,,,,,,,,,,,,,,,,,space,keypress(Space),,,,1469744.900000006,1469743.600000009,1468543.541,1468550.700000003,1468560.18,1469760.14,,,
fixation,canvas.Screen,0_11_0_0,2022-07-15T14:46:05.205Z,,,,,,4,783.3670000000857,timeout,,,0.51,,,,,,,,,,,,,,,,,0.49,false,1470244.400000006,1470243.551,1469743.413,1469745.299999997,1469760.14,1470543.507,,,
stimulus,canvas.Screen,0_11_0_1,2022-07-15T14:46:06.399Z,,,,,,4,892.5930000089575,response,,0.51,0.51,,,https://raw.githubusercontent.com/carero2/loss-perception/main/png/0.51blue1yellowb%3D1w%3D100v%3D18.png,https://raw.githubusercontent.com/carero2/loss-perception/main/png/0.49blue1yellowb%3D1w%3D100v%3D18.png,,,,,,,,,true,f,keypress(f),0.49,0.49,false,1471437.900000006,1471436.100000009,1470243.551,1470548.5,1470543.507,1471459.971,,,
choice,canvas.Screen,0_11_0_2,2022-07-15T14:46:07.405Z,,,,0.51,,4,1000.0430000000633,timeout,,,0.51,,0.49,,,2,,2,,,,,,,,,,0.49,false,1472444.200000003,1472443.328,1471443.119,1471453.400000006,1471459.971,1472460.014,186,,
ITI,canvas.Screen,0_11_0_3,2022-07-15T14:46:07.905Z,,,2758,,,4,499.76799999992363,timeout,,,0.51,,,,,,,,,,,,,,,,,0.49,false,1472943.900000006,1472943.069,1472443.328,1472444.5,1472460.014,1472959.782,,,
trial,flow.Sequence,0_11_0,2022-07-15T14:46:07.905Z,,,,,,4,3182.9290000000037,completion,,,0.51,,,,,,,,,,,,,,,,,0.49,false,1472944.400000006,1472943.069,1469743.413,1469745.200000003,1469760.14,1472959.782,,,
fixation,canvas.Screen,0_11_1_0,2022-07-15T14:46:08.405Z,,,,,,6,699.722000000067,timeout,,,0.515,,,,,,,,,,,,,,,,,0.485,true,1473444.100000009,1473443.216,1472943.069,1472944.700000003,1472959.782,1473659.504,,,
stimulus,canvas.Screen,0_11_1_1,2022-07-15T14:46:09.584Z,,,,,,6,961.6960000030231,response,,0.485,0.515,,,https://raw.githubusercontent.com/carero2/loss-perception/main/png/0.485blue1yellowb%3D1w%3D100v%3D73.png,https://raw.githubusercontent.com/carero2/loss-perception/main/png/0.515blue1yellowb%3D1w%3D100v%3D73.png,,,,,,,,,true,f,keypress(f),0.515,0.485,true,1474623,1474621.200000003,1473443.216,1473664.400000006,1473659.504,1474642.715,,,
choice,canvas.Screen,0_11_1_2,2022-07-15T14:46:10.589Z,,,,0.485,,6,999.8639999998268,timeout,,,0.515,,0.515,,,-3,,-1,,,,,,,,,,0.485,true,1475627.799999997,1475625.972,1474626.368,1474633.799999997,1474642.715,1475642.579,183,,
ITI,canvas.Screen,0_11_1_3,2022-07-15T14:46:11.088Z,,,2113,,,6,500.10700000007637,timeout,,,0.515,,,,,,,,,,,,,,,,,0.485,true,1476127.100000009,1476126.158,1475625.972,1475628,1475642.579,1476142.686,,,
trial,flow.Sequence,0_11_1,2022-07-15T14:46:11.088Z,,,,,,6,3166.376000000164,completion,,,0.515,,,,,,,,,,,,,,,,,0.485,true,1476127.600000009,1476126.158,1472943.069,1472944.600000009,1472959.782,1476142.686,,,
fixation,canvas.Screen,0_11_2_0,2022-07-15T14:46:11.588Z,,,,,,2,764.4240000001155,timeout,,,0.495,,,,,,,,,,,,,,,,,0.485,false,1476627.5,1476625.818,1476126.158,1476127.799999997,1476142.686,1476907.11,,,
stimulus,canvas.Screen,0_11_2_1,2022-07-15T14:46:14.171Z,,,,,,2,2301.8899999998976,response,,0.495,0.495,,,https://raw.githubusercontent.com/carero2/loss-perception/main/png/0.495blue1yellowb%3D1w%3D100v%3D16.png,https://raw.githubusercontent.com/carero2/loss-perception/main/png/0.485blue1yellowb%3D1w%3D100v%3D16.png,,,,,,,,,true,f,keypress(f),0.485,0.485,false,1479210.200000003,1479209,1476625.818,1476915.900000006,1476907.11,1479225.754,,,
choice,canvas.Screen,0_11_2_2,2022-07-15T14:46:15.170Z,,,,0.495,,2,999.9270000001416,timeout,,,0.495,,0.485,,,-1,,-2,,,,,,,,,,0.485,false,1480209.600000009,1480208.817,1479208.705,1479222.299999997,1479225.754,1480225.681,182,,
ITI,canvas.Screen,0_11_2_3,2022-07-15T14:46:15.671Z,,,2759,,,2,499.75399999995716,timeout,,,0.495,,,,,,,,,,,,,,,,,0.485,false,1480710.400000006,1480708.716,1480208.817,1480210,1480225.681,1480725.435,,,
