sender,sender_type,sender_id,timestamp,meta,,ITI_value,choice,consent,diff_net_value,duration,ended_on,gain_color,left,left_side,loss_color,not_choice,picture_left,picture_right,points,points1Block,points2Block,points3Block,points4Block,points5Block,points6Block,pointsBlock,responded,response,response_action,right,right_side,switch_sides,time_commit,time_end,time_render,time_run,time_show,time_switch,totalPoints,totalPoints_practice,url
welcome,html.Screen,0_0,2022-07-15T21:58:59.433Z,"{""labjs_version"":""20.2.4"",""labjs_build"":{""flavor"":""production"",""commit"":""f5b4a49f956347addd546a832a3327688c2c0fef""},""location"":""https://run.pavlovia.org/Rey/loss-perception/"",""userAgent"":""Mozilla/5.0 (Windows NT 10.0; Win64; x64) AppleWebKit/537.36 (KHTML, like Gecko) Chrome/103.0.0.0 Safari/537.36"",""platform"":""Win32"",""language"":""en-GB"",""locale"":""en-US"",""timeZone"":""Europe/London"",""timezoneOffset"":-60,""screen_width"":2560,""screen_height"":1440,""scroll_width"":2560,""scroll_height"":1241,""window_innerWidth"":2560,""window_innerHeight"":1289,""devicePixelRatio"":1}",,,,,,6574.83599999702,response,yellow,,,blue,,,,,0,0,0,0,0,0,0,,Continue,click #Continue,,,,11018.09999999404,11016.29999999702,4433.037,4442,4441.464,11024.922,100,100,{}
consent,html.Form,0_1,2022-07-15T21:59:46.241Z,,,,,true,,46801.578,form submission,,,,,,,,,,,,,,,,,,,,,,57826.59999999404,57826.5,11016.557,11018.20000000298,11024.922,57838.413,,,
ProlificID,html.Form,0_2,2022-07-15T21:59:56.456Z,,,,,,,10202.28700000298,form submission,,,,,,,,,,,,,,,,,,,,,,68040.79999999702,68040.70000000298,57817.502,57826.70000000298,57838.413,68042.687,,,
instructions,html.Form,0_3,2022-07-15T22:03:39.042Z,,,,,,,222583.313,form submission,,,,,,,,,,,,,,,,,,,,,,290626.40000000596,290626,68034.323,68040.90000000596,68042.687,290638.778,,,
Practice,canvas.Screen,0_4,2022-07-15T22:03:50.200Z,,,,,,,11144.922000002989,response,,,,,,,,,,,,,,,,,space,keypress(Space),,,,301785.200000003,301783.700000003,290622.045,290626.59999999404,290638.778,301788.88,,,
fixation,canvas.Screen,0_5_0_0,2022-07-15T22:03:50.697Z,,,,,,12,500.0999999999767,timeout,,,0.53,,,,,,,,,,,,,,,,,0.47,false,302281.40000000596,302280.666,301780.262,301785.299999997,301788.88,302288.98,,,
stimulus,canvas.Screen,0_5_0_1,2022-07-15T22:03:52.444Z,,,,,,12,1738.7200000029989,response,,0.53,0.53,,,https://raw.githubusercontent.com/carero2/loss-perception/main/png/0.53blue1yellowb%3D1w%3D100v%3D11.png,https://raw.githubusercontent.com/carero2/loss-perception/main/png/0.47blue1yellowb%3D1w%3D100v%3D11.png,,,,,,,,,true,f,keypress(f),0.47,0.47,false,304028.700000003,304027.700000003,302280.666,302281.40000000596,302288.98,304040.863,,,
choice,canvas.Screen,0_5_0_2,2022-07-15T22:03:54.446Z,,,,0.53,,12,1998.228999999992,timeout,,,0.53,,0.47,,,-6,,,,,,,-6,,,,,0.47,false,306031.299999997,306030.725,304022.143,304029.799999997,304040.863,306039.092,,94,
timeout,canvas.Screen,0_5_0_3,2022-07-15T22:03:54.447Z,,,,,,12,NaN,skipped,,,0.53,,,,,,,,,,,,,,,,,0.47,false,306032,306030.725,,306032,,306039.092,,,
ITI,canvas.Screen,0_5_0_4,2022-07-15T22:03:54.946Z,,,,,,12,500.06099999998696,timeout,,,0.53,,,,,,,,,,,,,,,,,0.47,false,306531.200000003,306530.737,306030.725,306032.09999999404,306039.092,306539.153,,,
trial,flow.Sequence,0_5_0,2022-07-15T22:03:54.947Z,,,,,,12,4741.857000000018,completion,,,0.53,,,,,,,,,,,,,,,,,0.47,false,306531.799999997,306530.737,301780.262,301785.299999997,301788.88,306539.153,,,
fixation,canvas.Screen,0_5_1_0,2022-07-15T22:03:55.446Z,,,,,,6,500.03100000001723,timeout,,,0.515,,,,,,,,,,,,,,,,,0.485,false,307031.200000003,307030.761,306530.737,306531.90000000596,306539.153,307039.184,,,
stimulus,canvas.Screen,0_5_1_1,2022-07-15T22:03:56.933Z,,,,,,6,1477.9159999940312,response,,0.515,0.515,,,https://raw.githubusercontent.com/carero2/loss-perception/main/png/0.515blue1yellowb%3D1w%3D100v%3D44.png,https://raw.githubusercontent.com/carero2/loss-perception/main/png/0.485blue1yellowb%3D1w%3D100v%3D44.png,,,,,,,,,true,j,keypress(j),0.485,0.485,false,308517.700000003,308517.09999999404,307030.761,307031.299999997,307039.184,308522.472,,,
choice,canvas.Screen,0_5_1_2,2022-07-15T22:03:58.930Z,,,,0.485,,6,2000.0219999999972,timeout,,,0.515,,0.515,,,3,,,,,,,-3,,,,,0.485,false,310514.700000003,310514.153,308513.827,308519.200000003,308522.472,310522.494,,97,
timeout,canvas.Screen,0_5_1_3,2022-07-15T22:03:58.930Z,,,,,,6,NaN,skipped,,,0.515,,,,,,,,,,,,,,,,,0.485,false,310515.299999997,310514.153,,310515.299999997,,310522.494,,,
ITI,canvas.Screen,0_5_1_4,2022-07-15T22:03:59.430Z,,,,,,6,499.99599999998463,timeout,,,0.515,,,,,,,,,,,,,,,,,0.485,false,311014.799999997,311014.169,310514.153,310515.40000000596,310522.494,311022.49,,,
trial,flow.Sequence,0_5_1,2022-07-15T22:03:59.430Z,,,,,,6,4475.016000000003,completion,,,0.515,,,,,,,,,,,,,,,,,0.485,false,311014.799999997,311014.169,306530.737,306531.799999997,306539.153,311022.49,,,
fixation,canvas.Screen,0_5_2_0,2022-07-15T22:03:59.930Z,,,,,,9,500.04000000003725,timeout,,,0.485,,,,,,,,,,,,,,,,,0.53,true,311514.59999999404,311514.158,311014.169,311014.90000000596,311022.49,311522.53,,,
stimulus,canvas.Screen,0_5_2_1,2022-07-15T22:04:00.740Z,,,,,,9,801.4699999999721,response,,0.53,0.485,,,https://raw.githubusercontent.com/carero2/loss-perception/main/png/0.53blue1yellowb%3D1w%3D100v%3D41.png,https://raw.githubusercontent.com/carero2/loss-perception/main/png/0.485blue1yellowb%3D1w%3D100v%3D41.png,,,,,,,,,true,j,keypress(j),0.485,0.53,true,312324.90000000596,312324,311514.158,311514.59999999404,311522.53,312330.915,,,
choice,canvas.Screen,0_5_2_2,2022-07-15T22:04:02.738Z,,,,0.485,,9,1999.9990000000107,timeout,,,0.485,,0.53,,,3,,,,,,,0,,,,,0.53,true,314322.90000000596,314322.56,312322.255,312325.90000000596,312330.915,314330.914,,100,
timeout,canvas.Screen,0_5_2_3,2022-07-15T22:04:02.739Z,,,,,,9,NaN,skipped,,,0.485,,,,,,,,,,,,,,,,,0.53,true,314323.59999999404,314322.56,,314323.5,,314330.914,,,
ITI,canvas.Screen,0_5_2_4,2022-07-15T22:04:03.238Z,,,,,,9,499.9640000000363,timeout,,,0.485,,,,,,,,,,,,,,,,,0.53,true,314823.200000003,314822.566,314322.56,314323.59999999404,314330.914,314830.878,,,
trial,flow.Sequence,0_5_2,2022-07-15T22:04:03.239Z,,,,,,9,3800.076000000001,completion,,,0.485,,,,,,,,,,,,,,,,,0.53,true,314823.40000000596,314822.566,311014.169,311014.90000000596,311022.49,314830.878,,,
fixation,canvas.Screen,0_5_3_0,2022-07-15T22:04:03.738Z,,,,,,6,500.11799999995856,timeout,,,0.485,,,,,,,,,,,,,,,,,0.455,true,315323,315322.534,314822.566,314823.40000000596,314830.878,315330.996,,,
stimulus,canvas.Screen,0_5_3_1,2022-07-15T22:04:04.896Z,,,,,,6,1149.603999994055,response,,0.455,0.485,,,https://raw.githubusercontent.com/carero2/loss-perception/main/png/0.455blue1yellowb%3D1w%3D100v%3D93.png,https://raw.githubusercontent.com/carero2/loss-perception/main/png/0.485blue1yellowb%3D1w%3D100v%3D93.png,,,,,,,,,true,f,keypress(f),0.485,0.455,true,316481.200000003,316480.59999999404,315322.534,315323.09999999404,315330.996,316489.27,,,
choice,canvas.Screen,0_5_3_2,2022-07-15T22:04:06.897Z,,,,0.455,,6,2000.0279999999912,timeout,,,0.485,,0.485,,,9,,,,,,,9,,,,,0.455,true,318481.40000000596,318480.968,316480.873,316482.700000003,316489.27,318489.298,,109,
timeout,canvas.Screen,0_5_3_3,2022-07-15T22:04:06.897Z,,,,,,6,NaN,skipped,,,0.485,,,,,,,,,,,,,,,,,0.455,true,318481.90000000596,318480.968,,318481.799999997,,318489.298,,,
ITI,canvas.Screen,0_5_3_4,2022-07-15T22:04:07.397Z,,,,,,6,500.02700000000186,timeout,,,0.485,,,,,,,,,,,,,,,,,0.455,true,318981.40000000596,318981.016,318480.968,318481.90000000596,318489.298,318989.325,,,
trial,flow.Sequence,0_5_3,2022-07-15T22:04:07.397Z,,,,,,6,4150.137999999977,completion,,,0.485,,,,,,,,,,,,,,,,,0.455,true,318981.40000000596,318981.016,314822.566,314823.40000000596,314830.878,318989.325,,,
fixation,canvas.Screen,0_5_4_0,2022-07-15T22:04:07.897Z,,,,,,6,500.08600000001024,timeout,,,0.545,,,,,,,,,,,,,,,,,0.515,false,319481.40000000596,319481.012,318981.016,318981.5,318989.325,319489.411,,,
stimulus,canvas.Screen,0_5_4_1,2022-07-15T22:04:08.634Z,,,,,,6,729.1889999940176,response,,0.545,0.545,,,https://raw.githubusercontent.com/carero2/loss-perception/main/png/0.545blue1yellowb%3D1w%3D100v%3D52.png,https://raw.githubusercontent.com/carero2/loss-perception/main/png/0.515blue1yellowb%3D1w%3D100v%3D52.png,,,,,,,,,true,j,keypress(j),0.515,0.515,false,320219.200000003,320218.59999999404,319481.012,319481.5,319489.411,320222.678,,,
choice,canvas.Screen,0_5_4_2,2022-07-15T22:04:10.630Z,,,,0.515,,6,2000.0029999999679,timeout,,,0.545,,0.545,,,-3,,,,,,,6,,,,,0.515,false,322214.799999997,322214.387,320214.291,320220.09999999404,320222.678,322222.681,,106,
timeout,canvas.Screen,0_5_4_3,2022-07-15T22:04:10.630Z,,,,,,6,NaN,skipped,,,0.545,,,,,,,,,,,,,,,,,0.515,false,322215.299999997,322214.387,,322215.200000003,,322222.681,,,
ITI,canvas.Screen,0_5_4_4,2022-07-15T22:04:11.130Z,,,,,,6,500.0659999999916,timeout,,,0.545,,,,,,,,,,,,,,,,,0.515,false,322714.90000000596,322714.435,322214.387,322215.299999997,322222.681,322722.747,,,
trial,flow.Sequence,0_5_4,2022-07-15T22:04:11.130Z,,,,,,6,3725.109999999986,completion,,,0.545,,,,,,,,,,,,,,,,,0.515,false,322715,322714.435,318981.016,318981.5,318989.325,322722.747,,,
fixation,canvas.Screen,0_5_5_0,2022-07-15T22:04:11.630Z,,,,,,18,500.0560000000405,timeout,,,0.545,,,,,,,,,,,,,,,,,0.455,true,323215,323214.434,322714.435,322715,322722.747,323222.803,,,
stimulus,canvas.Screen,0_5_5_1,2022-07-15T22:04:12.617Z,,,,,,18,978.9969999970053,response,,0.455,0.545,,,https://raw.githubusercontent.com/carero2/loss-perception/main/png/0.455blue1yellowb%3D1w%3D100v%3D69.png,https://raw.githubusercontent.com/carero2/loss-perception/main/png/0.545blue1yellowb%3D1w%3D100v%3D69.png,,,,,,,,,true,f,keypress(f),0.545,0.455,true,324202.299999997,324201.799999997,323214.434,323215,323222.803,324205.988,,,
choice,canvas.Screen,0_5_5_2,2022-07-15T22:04:14.614Z,,,,0.455,,18,2000.228999999992,timeout,,,0.545,,0.545,,,9,,,,,,,15,,,,,0.455,true,326198.40000000596,326197.757,324197.711,324203.09999999404,324205.988,326206.217,,115,
timeout,canvas.Screen,0_5_5_3,2022-07-15T22:04:14.614Z,,,,,,18,NaN,skipped,,,0.545,,,,,,,,,,,,,,,,,0.455,true,326199,326197.757,,326198.90000000596,,326206.217,,,
ITI,canvas.Screen,0_5_5_4,2022-07-15T22:04:15.113Z,,,,,,18,499.89000000001397,timeout,,,0.545,,,,,,,,,,,,,,,,,0.455,true,326698.299999997,326697.807,326197.757,326199.09999999404,326206.217,326706.107,,,
trial,flow.Sequence,0_5_5,2022-07-15T22:04:15.114Z,,,,,,18,3975.0599999999977,completion,,,0.545,,,,,,,,,,,,,,,,,0.455,true,326698.40000000596,326697.807,322714.435,322715,322722.747,326706.107,,,
fixation,canvas.Screen,0_5_6_0,2022-07-15T22:04:15.614Z,,,,,,6,500.045999999973,timeout,,,0.545,,,,,,,,,,,,,,,,,0.515,true,327198.299999997,327197.814,326697.807,326698.40000000596,326706.107,327206.153,,,
stimulus,canvas.Screen,0_5_6_1,2022-07-15T22:04:16.777Z,,,,,,6,1154.6469999970286,response,,0.515,0.545,,,https://raw.githubusercontent.com/carero2/loss-perception/main/png/0.515blue1yellowb%3D1w%3D100v%3D81.png,https://raw.githubusercontent.com/carero2/loss-perception/main/png/0.545blue1yellowb%3D1w%3D100v%3D81.png,,,,,,,,,true,f,keypress(f),0.545,0.515,true,328361.299999997,328360.799999997,327197.814,327198.40000000596,327206.153,328364.514,,,
choice,canvas.Screen,0_5_6_2,2022-07-15T22:04:18.772Z,,,,0.515,,6,2000.1089999999967,timeout,,,0.545,,0.545,,,-3,,,,,,,12,,,,,0.515,true,330356.700000003,330356.199,328356.078,328362.299999997,328364.514,330364.623,,112,
timeout,canvas.Screen,0_5_6_3,2022-07-15T22:04:18.773Z,,,,,,6,NaN,skipped,,,0.545,,,,,,,,,,,,,,,,,0.515,true,330357.299999997,330356.199,,330357.299999997,,330364.623,,,
ITI,canvas.Screen,0_5_6_4,2022-07-15T22:04:19.272Z,,,,,,6,499.96999999997206,timeout,,,0.545,,,,,,,,,,,,,,,,,0.515,true,330856.700000003,330856.224,330356.199,330357.299999997,330364.623,330864.593,,,
trial,flow.Sequence,0_5_6,2022-07-15T22:04:19.272Z,,,,,,6,4150.116999999969,completion,,,0.545,,,,,,,,,,,,,,,,,0.515,true,330856.700000003,330856.224,326697.807,326698.40000000596,326706.107,330864.593,,,
fixation,canvas.Screen,0_5_7_0,2022-07-15T22:04:19.772Z,,,,,,12,499.9670000000042,timeout,,,0.53,,,,,,,,,,,,,,,,,0.47,true,331356.799999997,331356.231,330856.224,330856.90000000596,330864.593,331364.56,,,
stimulus,canvas.Screen,0_5_7_1,2022-07-15T22:04:20.743Z,,,,,,12,962.1400000029826,response,,0.47,0.53,,,https://raw.githubusercontent.com/carero2/loss-perception/main/png/0.47blue1yellowb%3D1w%3D100v%3D26.png,https://raw.githubusercontent.com/carero2/loss-perception/main/png/0.53blue1yellowb%3D1w%3D100v%3D26.png,,,,,,,,,true,f,keypress(f),0.53,0.47,true,332327.5,332326.700000003,331356.231,331356.799999997,331364.56,332331.22,,,
choice,canvas.Screen,0_5_7_2,2022-07-15T22:04:22.739Z,,,,0.47,,12,2000.1170000000275,timeout,,,0.53,,0.53,,,6,,,,,,,18,,,,,0.47,true,334323.700000003,334322.948,332322.863,332328.299999997,332331.22,334331.337,,118,
timeout,canvas.Screen,0_5_7_3,2022-07-15T22:04:22.739Z,,,,,,12,NaN,skipped,,,0.53,,,,,,,,,,,,,,,,,0.47,true,334324.200000003,334322.948,,334324.200000003,,334331.337,,,
ITI,canvas.Screen,0_5_7_4,2022-07-15T22:04:23.239Z,,,,,,12,500.0009999999893,timeout,,,0.53,,,,,,,,,,,,,,,,,0.47,true,334823.40000000596,334822.955,334322.948,334324.200000003,334331.337,334831.338,,,
trial,flow.Sequence,0_5_7,2022-07-15T22:04:23.239Z,,,,,,12,3958.362000000023,completion,,,0.53,,,,,,,,,,,,,,,,,0.47,true,334823.5,334822.955,330856.224,330856.700000003,330864.593,334831.338,,,
fixation,canvas.Screen,0_5_8_0,2022-07-15T22:04:23.739Z,,,,,,18,500.00900000002,timeout,,,0.545,,,,,,,,,,,,,,,,,0.455,true,335323.40000000596,335322.963,334822.955,334823.59999999404,334831.338,335331.347,,,
stimulus,canvas.Screen,0_5_8_1,2022-07-15T22:04:24.381Z,,,,,,18,633.4529999970109,response,,0.455,0.545,,,https://raw.githubusercontent.com/carero2/loss-perception/main/png/0.455blue1yellowb%3D1w%3D100v%3D64.png,https://raw.githubusercontent.com/carero2/loss-perception/main/png/0.545blue1yellowb%3D1w%3D100v%3D64.png,,,,,,,,,true,f,keypress(f),0.545,0.455,true,335965.40000000596,335964.799999997,335322.963,335323.5,335331.347,335972.946,,,
choice,canvas.Screen,0_5_8_2,2022-07-15T22:04:26.381Z,,,,0.455,,18,2000.0950000000303,timeout,,,0.545,,0.545,,,9,,,,,,,27,,,,,0.455,true,337965.40000000596,337964.723,335964.622,335966.40000000596,335972.946,337973.041,,127,
timeout,canvas.Screen,0_5_8_3,2022-07-15T22:04:26.381Z,,,,,,18,NaN,skipped,,,0.545,,,,,,,,,,,,,,,,,0.455,true,337966.09999999404,337964.723,,337966,,337973.041,,,
ITI,canvas.Screen,0_5_8_4,2022-07-15T22:04:26.880Z,,,,,,18,500.00399999995716,timeout,,,0.545,,,,,,,,,,,,,,,,,0.455,true,338465.09999999404,338464.698,337964.723,337966.09999999404,337973.041,338473.045,,,
trial,flow.Sequence,0_5_8,2022-07-15T22:04:26.880Z,,,,,,18,3633.359999999986,completion,,,0.545,,,,,,,,,,,,,,,,,0.455,true,338465.200000003,338464.698,334822.955,334823.59999999404,334831.338,338473.045,,,
fixation,canvas.Screen,0_5_9_0,2022-07-15T22:04:27.380Z,,,,,,6,500.0800000000163,timeout,,,0.485,,,,,,,,,,,,,,,,,0.455,true,338965.09999999404,338964.706,338464.698,338465.200000003,338473.045,338973.125,,,
stimulus,canvas.Screen,0_5_9_1,2022-07-15T22:04:28.014Z,,,,,,6,624.6749999970198,response,,0.455,0.485,,,https://raw.githubusercontent.com/carero2/loss-perception/main/png/0.455blue1yellowb%3D1w%3D100v%3D56.png,https://raw.githubusercontent.com/carero2/loss-perception/main/png/0.485blue1yellowb%3D1w%3D100v%3D56.png,,,,,,,,,true,f,keypress(f),0.485,0.455,true,339598.5,339597.799999997,338964.706,338965.200000003,338973.125,339606.402,,,
choice,canvas.Screen,0_5_9_2,2022-07-15T22:04:30.014Z,,,,0.455,,6,2000.0530000000144,timeout,,,0.485,,0.485,,,9,,,,,,,36,,,,,0.455,true,341598.90000000596,341598.094,339597.978,339599.299999997,339606.402,341606.455,,136,
timeout,canvas.Screen,0_5_9_3,2022-07-15T22:04:30.015Z,,,,,,6,NaN,skipped,,,0.485,,,,,,,,,,,,,,,,,0.455,true,341599.700000003,341598.094,,341599.59999999404,,341606.455,,,
ITI,canvas.Screen,0_5_9_4,2022-07-15T22:04:30.514Z,,,,,,6,500.0370000000112,timeout,,,0.485,,,,,,,,,,,,,,,,,0.455,true,342098.700000003,342098.102,341598.094,341599.700000003,341606.455,342106.492,,,
trial,flow.Sequence,0_5_9,2022-07-15T22:04:30.514Z,,,,,,6,3625.05700000003,completion,,,0.485,,,,,,,,,,,,,,,,,0.455,true,342098.700000003,342098.102,338464.698,338465.200000003,338473.045,342106.492,,,
fixation,canvas.Screen,0_5_10_0,2022-07-15T22:04:31.014Z,,,,,,9,500.0429999999469,timeout,,,0.485,,,,,,,,,,,,,,,,,0.53,false,342598.59999999404,342598.136,342098.102,342098.799999997,342106.492,342606.535,,,
stimulus,canvas.Screen,0_5_10_1,2022-07-15T22:04:32.000Z,,,,,,9,978.2649999970454,response,,0.485,0.485,,,https://raw.githubusercontent.com/carero2/loss-perception/main/png/0.485blue1yellowb%3D1w%3D100v%3D87.png,https://raw.githubusercontent.com/carero2/loss-perception/main/png/0.53blue1yellowb%3D1w%3D100v%3D87.png,,,,,,,,,true,f,keypress(f),0.53,0.53,false,343585.40000000596,343584.799999997,342598.136,342598.700000003,342606.535,343589.804,,,
choice,canvas.Screen,0_5_10_2,2022-07-15T22:04:33.996Z,,,,0.485,,9,2000.0939999999828,timeout,,,0.485,,0.53,,,3,,,,,,,39,,,,,0.53,false,345582.09999999404,345581.505,343581.438,343586.40000000596,343589.804,345589.898,,139,
timeout,canvas.Screen,0_5_10_3,2022-07-15T22:04:33.997Z,,,,,,9,NaN,skipped,,,0.485,,,,,,,,,,,,,,,,,0.53,false,345582.700000003,345581.505,,345582.700000003,,345589.898,,,
ITI,canvas.Screen,0_5_10_4,2022-07-15T22:04:34.497Z,,,,,,9,499.95100000000093,timeout,,,0.485,,,,,,,,,,,,,,,,,0.53,false,346082.09999999404,346081.526,345581.505,345582.799999997,345589.898,346089.849,,,
trial,flow.Sequence,0_5_10,2022-07-15T22:04:34.497Z,,,,,,9,3975.033999999985,completion,,,0.485,,,,,,,,,,,,,,,,,0.53,false,346082.299999997,346081.526,342098.102,342098.799999997,342106.492,346089.849,,,
fixation,canvas.Screen,0_5_11_0,2022-07-15T22:04:34.996Z,,,,,,6,500.1460000000079,timeout,,,0.515,,,,,,,,,,,,,,,,,0.485,false,346582,346581.53,346081.526,346082.299999997,346089.849,346589.995,,,
stimulus,canvas.Screen,0_5_11_1,2022-07-15T22:04:35.616Z,,,,,,6,611.0050000000047,response,,0.515,0.515,,,https://raw.githubusercontent.com/carero2/loss-perception/main/png/0.515blue1yellowb%3D1w%3D100v%3D25.png,https://raw.githubusercontent.com/carero2/loss-perception/main/png/0.485blue1yellowb%3D1w%3D100v%3D25.png,,,,,,,,,true,j,keypress(j),0.485,0.485,false,347201.799999997,347201,346581.53,346582.09999999404,346589.995,347206.458,,,
choice,canvas.Screen,0_5_11_2,2022-07-15T22:04:37.613Z,,,,0.485,,6,2000.1570000000065,timeout,,,0.515,,0.515,,,3,,,,,,,42,,,,,0.485,false,349198.700000003,349198.245,347198.183,347202.700000003,347206.458,349206.615,,142,
timeout,canvas.Screen,0_5_11_3,2022-07-15T22:04:37.614Z,,,,,,6,NaN,skipped,,,0.515,,,,,,,,,,,,,,,,,0.485,false,349199.40000000596,349198.245,,349199.299999997,,349206.615,,,
ITI,canvas.Screen,0_5_11_4,2022-07-15T22:04:38.113Z,,,,,,6,499.9679999999935,timeout,,,0.515,,,,,,,,,,,,,,,,,0.485,false,349698.799999997,349698.278,349198.245,349199.40000000596,349206.615,349706.583,,,
trial,flow.Sequence,0_5_11,2022-07-15T22:04:38.113Z,,,,,,6,3608.4290000000037,completion,,,0.515,,,,,,,,,,,,,,,,,0.485,false,349698.90000000596,349698.278,346081.526,346082.299999997,346089.849,349706.583,,,
fixation,canvas.Screen,0_5_12_0,2022-07-15T22:04:38.613Z,,,,,,6,500.02799999999115,timeout,,,0.515,,,,,,,,,,,,,,,,,0.485,false,350198.700000003,350198.256,349698.278,349698.90000000596,349706.583,350206.611,,,
stimulus,canvas.Screen,0_5_12_1,2022-07-15T22:04:39.272Z,,,,,,6,650.5890000030049,response,,0.515,0.515,,,https://raw.githubusercontent.com/carero2/loss-perception/main/png/0.515blue1yellowb%3D1w%3D100v%3D87.png,https://raw.githubusercontent.com/carero2/loss-perception/main/png/0.485blue1yellowb%3D1w%3D100v%3D87.png,,,,,,,,,true,j,keypress(j),0.485,0.485,false,350857.799999997,350857.200000003,350198.256,350198.799999997,350206.611,350864.918,,,
choice,canvas.Screen,0_5_12_2,2022-07-15T22:04:41.272Z,,,,0.485,,6,2000.1749999999884,timeout,,,0.515,,0.515,,,3,,,,,,,45,,,,,0.485,false,352857.299999997,352856.648,350856.528,350858.5,350864.918,352865.093,,145,
timeout,canvas.Screen,0_5_12_3,2022-07-15T22:04:41.272Z,,,,,,6,NaN,skipped,,,0.515,,,,,,,,,,,,,,,,,0.485,false,352858,352856.648,,352857.90000000596,,352865.093,,,
ITI,canvas.Screen,0_5_12_4,2022-07-15T22:04:41.772Z,,,,,,6,499.89199999999255,timeout,,,0.515,,,,,,,,,,,,,,,,,0.485,false,353357.200000003,353356.655,352856.648,352858,352865.093,353364.985,,,
trial,flow.Sequence,0_5_12,2022-07-15T22:04:41.772Z,,,,,,6,3650.0720000000438,completion,,,0.515,,,,,,,,,,,,,,,,,0.485,false,353357.200000003,353356.655,349698.278,349698.90000000596,349706.583,353364.985,,,
fixation,canvas.Screen,0_5_13_0,2022-07-15T22:04:42.272Z,,,,,,9,500.01500000001397,timeout,,,0.485,,,,,,,,,,,,,,,,,0.53,true,353857.200000003,353856.695,353356.655,353357.299999997,353364.985,353865,,,
stimulus,canvas.Screen,0_5_13_1,2022-07-15T22:04:42.961Z,,,,,,9,680.9000000059605,response,,0.53,0.485,,,https://raw.githubusercontent.com/carero2/loss-perception/main/png/0.53blue1yellowb%3D1w%3D100v%3D67.png,https://raw.githubusercontent.com/carero2/loss-perception/main/png/0.485blue1yellowb%3D1w%3D100v%3D67.png,,,,,,,,,true,j,keypress(j),0.485,0.53,true,354546.5,354545.90000000596,353856.695,353857.200000003,353865,354571.807,,,
choice,canvas.Screen,0_5_13_2,2022-07-15T22:04:44.980Z,,,,0.485,,9,2001.6500000000233,timeout,,,0.485,,0.53,,,3,,,,,,,48,,,,,0.53,true,356565.799999997,356565.093,354539.988,354547.200000003,354571.807,356573.457,,148,
timeout,canvas.Screen,0_5_13_3,2022-07-15T22:04:44.981Z,,,,,,9,NaN,skipped,,,0.485,,,,,,,,,,,,,,,,,0.53,true,356566.40000000596,356565.093,,356566.40000000596,,356573.457,,,
ITI,canvas.Screen,0_5_13_4,2022-07-15T22:04:45.480Z,,,,,,9,500.0339999999851,timeout,,,0.485,,,,,,,,,,,,,,,,,0.53,true,357065.59999999404,357065.094,356565.093,356566.5,356573.457,357073.491,,,
trial,flow.Sequence,0_5_13,2022-07-15T22:04:45.480Z,,,,,,9,3700.1089999999967,completion,,,0.485,,,,,,,,,,,,,,,,,0.53,true,357065.700000003,357065.094,353356.655,353357.200000003,353364.985,357073.491,,,
fixation,canvas.Screen,0_5_14_0,2022-07-15T22:04:45.980Z,,,,,,6,500.0130000000354,timeout,,,0.485,,,,,,,,,,,,,,,,,0.455,true,357565.59999999404,357565.09,357065.094,357065.700000003,357073.491,357573.504,,,
stimulus,canvas.Screen,0_5_14_1,2022-07-15T22:04:47.132Z,,,,,,6,1143.4959999999846,response,,0.455,0.485,,,https://raw.githubusercontent.com/carero2/loss-perception/main/png/0.455blue1yellowb%3D1w%3D100v%3D66.png,https://raw.githubusercontent.com/carero2/loss-perception/main/png/0.485blue1yellowb%3D1w%3D100v%3D66.png,,,,,,,,,true,f,keypress(f),0.485,0.455,true,358717.700000003,358717,357565.09,357565.700000003,357573.504,358723.363,,,
choice,canvas.Screen,0_5_14_2,2022-07-15T22:04:49.130Z,,,,0.455,,6,2000.2039999999688,timeout,,,0.485,,0.485,,,9,,,,,,,57,,,,,0.455,true,360715.700000003,360715.147,358715.058,358718.59999999404,358723.363,360723.567,,157,
timeout,canvas.Screen,0_5_14_3,2022-07-15T22:04:49.131Z,,,,,,6,NaN,skipped,,,0.485,,,,,,,,,,,,,,,,,0.455,true,360716.40000000596,360715.147,,360716.299999997,,360723.567,,,
ITI,canvas.Screen,0_5_14_4,2022-07-15T22:04:49.630Z,,,,,,6,500.00700000004144,timeout,,,0.485,,,,,,,,,,,,,,,,,0.455,true,361215.700000003,361215.153,360715.147,360716.40000000596,360723.567,361223.574,,,
trial,flow.Sequence,0_5_14,2022-07-15T22:04:49.630Z,,,,,,6,4141.662000000011,completion,,,0.485,,,,,,,,,,,,,,,,,0.455,true,361215.700000003,361215.153,357065.094,357065.700000003,357073.491,361223.574,,,
fixation,canvas.Screen,0_5_15_0,2022-07-15T22:04:50.130Z,,,,,,18,499.9659999999567,timeout,,,0.545,,,,,,,,,,,,,,,,,0.455,true,361715.700000003,361715.166,361215.153,361215.799999997,361223.574,361723.54,,,
stimulus,canvas.Screen,0_5_15_1,2022-07-15T22:04:50.837Z,,,,,,18,698.5599999940605,response,,0.455,0.545,,,https://raw.githubusercontent.com/carero2/loss-perception/main/png/0.455blue1yellowb%3D1w%3D100v%3D59.png,https://raw.githubusercontent.com/carero2/loss-perception/main/png/0.545blue1yellowb%3D1w%3D100v%3D59.png,,,,,,,,,true,f,keypress(f),0.545,0.455,true,362422.90000000596,362422.09999999404,361715.166,361715.799999997,361723.54,362431.769,,,
choice,canvas.Screen,0_5_15_2,2022-07-15T22:04:52.839Z,,,,0.455,,18,2000.1440000000293,timeout,,,0.545,,0.545,,,9,,,,,,,66,,,,,0.455,true,364424.40000000596,364423.559,362423.497,362424,362431.769,364431.913,,166,
timeout,canvas.Screen,0_5_15_3,2022-07-15T22:04:52.839Z,,,,,,18,NaN,skipped,,,0.545,,,,,,,,,,,,,,,,,0.455,true,364425.09999999404,364423.559,,364424.90000000596,,364431.913,,,
ITI,canvas.Screen,0_5_15_4,2022-07-15T22:04:53.338Z,,,,,,18,499.9660000000149,timeout,,,0.545,,,,,,,,,,,,,,,,,0.455,true,364924,364923.569,364423.559,364425.09999999404,364431.913,364931.879,,,
trial,flow.Sequence,0_5_15,2022-07-15T22:04:53.339Z,,,,,,18,3699.9949999999953,completion,,,0.545,,,,,,,,,,,,,,,,,0.455,true,364924.200000003,364923.569,361215.153,361215.799999997,361223.574,364931.879,,,
fixation,canvas.Screen,0_5_16_0,2022-07-15T22:04:53.839Z,,,,,,12,499.905999999959,timeout,,,0.53,,,,,,,,,,,,,,,,,0.47,true,365424.09999999404,365423.567,364923.569,364924.200000003,364931.879,365431.785,,,
stimulus,canvas.Screen,0_5_16_1,2022-07-15T22:04:54.824Z,,,,,,12,977.2150000000256,response,,0.47,0.53,,,https://raw.githubusercontent.com/carero2/loss-perception/main/png/0.47blue1yellowb%3D1w%3D100v%3D22.png,https://raw.githubusercontent.com/carero2/loss-perception/main/png/0.53blue1yellowb%3D1w%3D100v%3D22.png,,,,,,,,,true,f,keypress(f),0.53,0.47,true,366409.59999999404,366409,365423.567,365424.200000003,365431.785,366415.159,,,
choice,canvas.Screen,0_5_16_2,2022-07-15T22:04:56.822Z,,,,0.47,,12,2000.119000000006,timeout,,,0.53,,0.53,,,6,,,,,,,72,,,,,0.47,true,368407.799999997,368406.983,366406.67,366410.40000000596,366415.159,368415.278,,172,
timeout,canvas.Screen,0_5_16_3,2022-07-15T22:04:56.823Z,,,,,,12,NaN,skipped,,,0.53,,,,,,,,,,,,,,,,,0.47,true,368408.5,368406.983,,368408.40000000596,,368415.278,,,
ITI,canvas.Screen,0_5_16_4,2022-07-15T22:04:57.322Z,,,,,,12,499.99400000000605,timeout,,,0.53,,,,,,,,,,,,,,,,,0.47,true,368907.59999999404,368906.971,368406.983,368408.5,368415.278,368915.272,,,
trial,flow.Sequence,0_5_16,2022-07-15T22:04:57.322Z,,,,,,12,3975.092000000004,completion,,,0.53,,,,,,,,,,,,,,,,,0.47,true,368907.59999999404,368906.971,364923.569,364924.200000003,364931.879,368915.272,,,
fixation,canvas.Screen,0_5_17_0,2022-07-15T22:04:57.822Z,,,,,,6,499.99300000001676,timeout,,,0.545,,,,,,,,,,,,,,,,,0.515,true,369407.5,369406.983,368906.971,368907.799999997,368915.272,369415.265,,,
stimulus,canvas.Screen,0_5_17_1,2022-07-15T22:04:59.317Z,,,,,,6,1486.9350000029663,response,,0.515,0.545,,,https://raw.githubusercontent.com/carero2/loss-perception/main/png/0.515blue1yellowb%3D1w%3D100v%3D32.png,https://raw.githubusercontent.com/carero2/loss-perception/main/png/0.545blue1yellowb%3D1w%3D100v%3D32.png,,,,,,,,,true,f,keypress(f),0.545,0.515,true,370902.700000003,370902.200000003,369406.983,369407.700000003,369415.265,370906.983,,,
choice,canvas.Screen,0_5_17_2,2022-07-15T22:05:01.314Z,,,,0.515,,6,2000.1329999999725,timeout,,,0.545,,0.545,,,-3,,,,,,,69,,,,,0.515,true,372899.200000003,372898.677,370898.589,370903.40000000596,370906.983,372907.116,,169,
timeout,canvas.Screen,0_5_17_3,2022-07-15T22:05:01.314Z,,,,,,6,NaN,skipped,,,0.545,,,,,,,,,,,,,,,,,0.515,true,372899.90000000596,372898.677,,372899.90000000596,,372907.116,,,
ITI,canvas.Screen,0_5_17_4,2022-07-15T22:05:01.814Z,,,,,,6,499.9349999999977,timeout,,,0.545,,,,,,,,,,,,,,,,,0.515,true,373399.299999997,373398.663,372898.677,372900,372907.116,373407.051,,,
trial,flow.Sequence,0_5_17,2022-07-15T22:05:01.814Z,,,,,,6,4483.391000000003,completion,,,0.545,,,,,,,,,,,,,,,,,0.515,true,373399.299999997,373398.663,368906.971,368907.799999997,368915.272,373407.051,,,
fixation,canvas.Screen,0_5_18_0,2022-07-15T22:05:02.314Z,,,,,,9,500.0030000000261,timeout,,,0.485,,,,,,,,,,,,,,,,,0.53,true,373899.299999997,373898.739,373398.663,373399.299999997,373407.051,373907.054,,,
stimulus,canvas.Screen,0_5_18_1,2022-07-15T22:05:02.848Z,,,,,,9,525.6460000029765,response,,0.53,0.485,,,https://raw.githubusercontent.com/carero2/loss-perception/main/png/0.53blue1yellowb%3D1w%3D100v%3D59.png,https://raw.githubusercontent.com/carero2/loss-perception/main/png/0.485blue1yellowb%3D1w%3D100v%3D59.png,,,,,,,,,true,j,keypress(j),0.485,0.53,true,374433.5,374432.700000003,373898.739,373899.299999997,373907.054,374440.404,,,
choice,canvas.Screen,0_5_18_2,2022-07-15T22:05:04.847Z,,,,0.485,,9,2000.0800000000163,timeout,,,0.485,,0.53,,,3,,,,,,,72,,,,,0.53,true,376432.5,376432.027,374431.895,374434.5,374440.404,376440.484,,172,
timeout,canvas.Screen,0_5_18_3,2022-07-15T22:05:04.847Z,,,,,,9,NaN,skipped,,,0.485,,,,,,,,,,,,,,,,,0.53,true,376433,376432.027,,376432.90000000596,,376440.484,,,
ITI,canvas.Screen,0_5_18_4,2022-07-15T22:05:05.347Z,,,,,,9,499.99300000001676,timeout,,,0.485,,,,,,,,,,,,,,,,,0.53,true,376932.5,376932.107,376432.027,376433,376440.484,376940.477,,,
trial,flow.Sequence,0_5_18,2022-07-15T22:05:05.347Z,,,,,,9,3525.0560000000405,completion,,,0.485,,,,,,,,,,,,,,,,,0.53,true,376932.59999999404,376932.107,373398.663,373399.299999997,373407.051,376940.477,,,
fixation,canvas.Screen,0_5_19_0,2022-07-15T22:05:05.847Z,,,,,,12,499.91399999998976,timeout,,,0.53,,,,,,,,,,,,,,,,,0.47,true,377432.799999997,377432.171,376932.107,376932.700000003,376940.477,377440.391,,,
stimulus,canvas.Screen,0_5_19_1,2022-07-15T22:05:06.529Z,,,,,,12,673.7089999940363,response,,0.47,0.53,,,https://raw.githubusercontent.com/carero2/loss-perception/main/png/0.47blue1yellowb%3D1w%3D100v%3D22.png,https://raw.githubusercontent.com/carero2/loss-perception/main/png/0.53blue1yellowb%3D1w%3D100v%3D22.png,,,,,,,,,true,f,keypress(f),0.53,0.47,true,378115,378114.09999999404,377432.171,377432.90000000596,377440.391,378123.869,,,
choice,canvas.Screen,0_5_19_2,2022-07-15T22:05:08.531Z,,,,0.47,,12,2000.0540000000037,timeout,,,0.53,,0.53,,,6,,,,,,,78,,,,,0.47,true,380116.299999997,380115.555,378115.348,378115.90000000596,378123.869,380123.923,,178,
timeout,canvas.Screen,0_5_19_3,2022-07-15T22:05:08.531Z,,,,,,12,NaN,skipped,,,0.53,,,,,,,,,,,,,,,,,0.47,true,380116.90000000596,380115.555,,380116.90000000596,,380123.923,,,
ITI,canvas.Screen,0_5_19_4,2022-07-15T22:05:09.030Z,,,,,,12,499.99099999998,timeout,,,0.53,,,,,,,,,,,,,,,,,0.47,true,380616.09999999404,380615.543,380115.555,380117,380123.923,380623.914,,,
trial,flow.Sequence,0_5_19,2022-07-15T22:05:09.031Z,,,,,,12,3675.0659999999916,completion,,,0.53,,,,,,,,,,,,,,,,,0.47,true,380616.200000003,380615.543,376932.107,376932.59999999404,376940.477,380623.914,,,
fixation,canvas.Screen,0_5_20_0,2022-07-15T22:05:09.530Z,,,,,,6,499.954000000027,timeout,,,0.515,,,,,,,,,,,,,,,,,0.485,true,381116.09999999404,381115.554,380615.543,380616.299999997,380623.914,381123.868,,,
stimulus,canvas.Screen,0_5_20_1,2022-07-15T22:05:10.473Z,,,,,,6,934.1319999999832,response,,0.485,0.515,,,https://raw.githubusercontent.com/carero2/loss-perception/main/png/0.485blue1yellowb%3D1w%3D100v%3D17.png,https://raw.githubusercontent.com/carero2/loss-perception/main/png/0.515blue1yellowb%3D1w%3D100v%3D17.png,,,,,,,,,true,f,keypress(f),0.515,0.485,true,382058.5,382058,381115.554,381116.200000003,381123.868,382065.517,,,
choice,canvas.Screen,0_5_20_2,2022-07-15T22:05:12.472Z,,,,0.485,,6,2000.0620000000345,timeout,,,0.515,,0.515,,,3,,,,,,,81,,,,,0.485,true,384058,384057.272,382057.137,382059.200000003,382065.517,384065.579,,181,
timeout,canvas.Screen,0_5_20_3,2022-07-15T22:05:12.473Z,,,,,,6,NaN,skipped,,,0.515,,,,,,,,,,,,,,,,,0.485,true,384058.5,384057.272,,384058.40000000596,,384065.579,,,
ITI,canvas.Screen,0_5_20_4,2022-07-15T22:05:12.972Z,,,,,,6,500.06199999997625,timeout,,,0.515,,,,,,,,,,,,,,,,,0.485,true,384557.799999997,384557.286,384057.272,384058.5,384065.579,384565.641,,,
trial,flow.Sequence,0_5_20,2022-07-15T22:05:12.972Z,,,,,,6,3933.372000000032,completion,,,0.515,,,,,,,,,,,,,,,,,0.485,true,384557.90000000596,384557.286,380615.543,380616.200000003,380623.914,384565.641,,,
fixation,canvas.Screen,0_5_21_0,2022-07-15T22:05:13.472Z,,,,,,6,500.0370000000112,timeout,,,0.485,,,,,,,,,,,,,,,,,0.455,false,385057.799999997,385057.288,384557.286,384557.90000000596,384565.641,385065.678,,,
stimulus,canvas.Screen,0_5_21_1,2022-07-15T22:05:14.082Z,,,,,,6,601.1219999970053,response,,0.485,0.485,,,https://raw.githubusercontent.com/carero2/loss-perception/main/png/0.485blue1yellowb%3D1w%3D100v%3D99.png,https://raw.githubusercontent.com/carero2/loss-perception/main/png/0.455blue1yellowb%3D1w%3D100v%3D99.png,,,,,,,,,true,j,keypress(j),0.455,0.455,false,385667.59999999404,385666.799999997,385057.288,385057.90000000596,385065.678,385673.906,,,
choice,canvas.Screen,0_5_21_2,2022-07-15T22:05:16.081Z,,,,0.455,,6,2000.1179999999586,timeout,,,0.485,,0.485,,,9,,,,,,,90,,,,,0.455,false,387666.299999997,387665.654,385665.481,385669,385673.906,387674.024,,190,
timeout,canvas.Screen,0_5_21_3,2022-07-15T22:05:16.081Z,,,,,,6,NaN,skipped,,,0.485,,,,,,,,,,,,,,,,,0.455,false,387666.700000003,387665.654,,387666.700000003,,387674.024,,,
ITI,canvas.Screen,0_5_21_4,2022-07-15T22:05:16.581Z,,,,,,6,500.00600000005215,timeout,,,0.485,,,,,,,,,,,,,,,,,0.455,false,388166.299999997,388165.701,387665.654,387666.700000003,387674.024,388174.03,,,
trial,flow.Sequence,0_5_21,2022-07-15T22:05:16.581Z,,,,,,6,3600.0599999999977,completion,,,0.485,,,,,,,,,,,,,,,,,0.455,false,388166.40000000596,388165.701,384557.286,384557.90000000596,384565.641,388174.03,,,
fixation,canvas.Screen,0_5_22_0,2022-07-15T22:05:17.081Z,,,,,,18,500.0819999999949,timeout,,,0.545,,,,,,,,,,,,,,,,,0.455,false,388666.40000000596,388665.725,388165.701,388166.40000000596,388174.03,388674.112,,,
stimulus,canvas.Screen,0_5_22_1,2022-07-15T22:05:17.655Z,,,,,,18,565.9879999940167,response,,0.545,0.545,,,https://raw.githubusercontent.com/carero2/loss-perception/main/png/0.545blue1yellowb%3D1w%3D100v%3D23.png,https://raw.githubusercontent.com/carero2/loss-perception/main/png/0.455blue1yellowb%3D1w%3D100v%3D23.png,,,,,,,,,true,j,keypress(j),0.455,0.455,false,389240.700000003,389240.09999999404,388665.725,388666.40000000596,388674.112,389249.026,,,
choice,canvas.Screen,0_5_22_2,2022-07-15T22:05:19.656Z,,,,0.455,,18,2000.0989999999874,timeout,,,0.545,,0.545,,,9,,,,,,,99,,,,,0.455,false,391241.5,391240.772,389240.493,389241.90000000596,389249.026,391249.125,,199,
timeout,canvas.Screen,0_5_22_3,2022-07-15T22:05:19.656Z,,,,,,18,NaN,skipped,,,0.545,,,,,,,,,,,,,,,,,0.455,false,391242.09999999404,391240.772,,391242,,391249.125,,,
ITI,canvas.Screen,0_5_22_4,2022-07-15T22:05:20.156Z,,,,,,18,499.95899999997346,timeout,,,0.545,,,,,,,,,,,,,,,,,0.455,false,391741.299999997,391740.75,391240.772,391242.09999999404,391249.125,391749.084,,,
trial,flow.Sequence,0_5_22,2022-07-15T22:05:20.156Z,,,,,,18,3566.719999999972,completion,,,0.545,,,,,,,,,,,,,,,,,0.455,false,391741.40000000596,391740.75,388165.701,388166.40000000596,388174.03,391749.084,,,
fixation,canvas.Screen,0_5_23_0,2022-07-15T22:05:20.656Z,,,,,,6,500.01800000004005,timeout,,,0.545,,,,,,,,,,,,,,,,,0.515,false,392241.40000000596,392240.762,391740.75,391741.40000000596,391749.084,392249.102,,,
stimulus,canvas.Screen,0_5_23_1,2022-07-15T22:05:21.248Z,,,,,,6,583.298000005947,response,,0.545,0.545,,,https://raw.githubusercontent.com/carero2/loss-perception/main/png/0.545blue1yellowb%3D1w%3D100v%3D52.png,https://raw.githubusercontent.com/carero2/loss-perception/main/png/0.515blue1yellowb%3D1w%3D100v%3D52.png,,,,,,,,,true,j,keypress(j),0.515,0.515,false,392833.09999999404,392832.40000000596,392240.762,392241.40000000596,392249.102,392840.801,,,
choice,canvas.Screen,0_5_23_2,2022-07-15T22:05:23.247Z,,,,0.515,,6,2000.0860000000102,timeout,,,0.545,,0.545,,,-3,,,,,,,96,,,,,0.515,false,394833,394832.487,392832.418,392833.90000000596,392840.801,394840.887,,196,
timeout,canvas.Screen,0_5_23_3,2022-07-15T22:05:23.248Z,,,,,,6,NaN,skipped,,,0.545,,,,,,,,,,,,,,,,,0.515,false,394833.700000003,394832.487,,394833.59999999404,,394840.887,,,
ITI,canvas.Screen,0_5_23_4,2022-07-15T22:05:23.747Z,,,,,,6,499.91300000000047,timeout,,,0.545,,,,,,,,,,,,,,,,,0.515,false,395333.09999999404,395332.494,394832.487,394833.700000003,394840.887,395340.8,,,
trial,flow.Sequence,0_5_23,2022-07-15T22:05:23.748Z,,,,,,6,3583.4100000000326,completion,,,0.545,,,,,,,,,,,,,,,,,0.515,false,395333.09999999404,395332.494,391740.75,391741.40000000596,391749.084,395340.8,,,
pratice,flow.Loop,0_5,2022-07-15T22:05:23.748Z,,,,,,,93543.614,completion,,,,,,,,,,,,,,,,,,,,,,395333.200000003,395332.494,301780.262,301785.299999997,301788.88,395340.8,,,
show amount,html.Screen,0_6,2022-07-15T22:06:04.785Z,,,,,,,41028.29999999405,response,,,,,,,,,,,,,,,,,Continue,click #Continue,,,,436370.700000003,436369.09999999404,395332.494,395333.700000003,395340.8,436374.854,,,
first block,canvas.Screen,0_7,2022-07-15T22:06:30.937Z,,,,,,,26146.945999997028,response,,,,,,,,,,,,,,,,,space,keypress(Space),,,,462522.5,462521.799999997,436366.529,436370.799999997,436374.854,462525.439,,,
fixation,canvas.Screen,0_8_0_0,2022-07-15T22:06:31.432Z,,,,,,4,666.6780000000144,timeout,,,0.51,,,,,,,,,,,,,,,,,0.49,true,463017.59999999404,463017.151,462518.859,462522.700000003,462525.439,463192.117,,,
stimulus,canvas.Screen,0_8_0_1,2022-07-15T22:06:33.162Z,,,,,,4,1554.3829999999725,response,,0.49,0.51,,,https://raw.githubusercontent.com/carero2/loss-perception/main/png/0.49blue1yellowb%3D1w%3D100v%3D41.png,https://raw.githubusercontent.com/carero2/loss-perception/main/png/0.51blue1yellowb%3D1w%3D100v%3D41.png,,,,,,,,,true,f,keypress(f),0.51,0.49,true,464747.200000003,464746.5,463017.151,463195.5,463192.117,464758.858,,,
choice,canvas.Screen,0_8_0_2,2022-07-15T22:06:34.166Z,,,,0.49,,4,999.9679999999935,timeout,,,0.51,,0.51,,,2,2,,,,,,,,,,,0.49,true,465751.200000003,465750.52,464750.063,464754,464758.858,465758.826,102,,
ITI,canvas.Screen,0_8_0_3,2022-07-15T22:06:34.666Z,,,2299,,,4,500.0329999999958,timeout,,,0.51,,,,,,,,,,,,,,,,,0.49,true,466251.200000003,466250.581,465750.52,465751.40000000596,465758.826,466258.859,,,
trial,flow.Sequence,0_8_0,2022-07-15T22:06:34.666Z,,,,,,4,3725.1419999999925,completion,,,0.51,,,,,,,,,,,,,,,,,0.49,true,466251.299999997,466250.581,462518.859,462522.59999999404,462525.439,466258.859,,,
fixation,canvas.Screen,0_8_1_0,2022-07-15T22:06:35.165Z,,,,,,2,683.375,timeout,,,0.495,,,,,,,,,,,,,,,,,0.485,true,466751.200000003,466750.559,466250.581,466251.40000000596,466258.859,466942.234,,,
stimulus,canvas.Screen,0_8_1_1,2022-07-15T22:06:37.894Z,,,,,,2,2536.365999994043,response,,0.485,0.495,,,https://raw.githubusercontent.com/carero2/loss-perception/main/png/0.485blue1yellowb%3D1w%3D100v%3D99.png,https://raw.githubusercontent.com/carero2/loss-perception/main/png/0.495blue1yellowb%3D1w%3D100v%3D99.png,,,,,,,,,true,j,keypress(j),0.495,0.485,true,469480.09999999404,469478.59999999404,466750.559,466945.700000003,466942.234,469492.325,,,
choice,canvas.Screen,0_8_1_2,2022-07-15T22:06:38.899Z,,,,0.495,,2,999.9839999999967,timeout,,,0.495,,0.485,,,1,3,,,,,,,,,,,0.485,true,470484.59999999404,470483.961,469484.097,469486.90000000596,469492.325,470492.309,103,,
ITI,canvas.Screen,0_8_1_3,2022-07-15T22:06:39.399Z,,,2133,,,2,500.0139999999665,timeout,,,0.495,,,,,,,,,,,,,,,,,0.485,true,470984.5,470983.988,470483.961,470484.59999999404,470492.309,470992.323,,,
trial,flow.Sequence,0_8_1,2022-07-15T22:06:39.399Z,,,,,,2,4725.129000000015,completion,,,0.495,,,,,,,,,,,,,,,,,0.485,true,470984.700000003,470983.988,466250.581,466251.299999997,466258.859,470992.323,,,
fixation,canvas.Screen,0_8_2_0,2022-07-15T22:06:39.899Z,,,,,,4,966.579000000027,timeout,,,0.49,,,,,,,,,,,,,,,,,0.47,true,471484.5,471484.004,470983.988,470984.700000003,470992.323,471958.902,,,
stimulus,canvas.Screen,0_8_2_1,2022-07-15T22:06:42.181Z,,,,,,4,1805.897999997018,response,,0.47,0.49,,,https://raw.githubusercontent.com/carero2/loss-perception/main/png/0.47blue1yellowb%3D1w%3D100v%3D99.png,https://raw.githubusercontent.com/carero2/loss-perception/main/png/0.49blue1yellowb%3D1w%3D100v%3D99.png,,,,,,,,,true,j,keypress(j),0.49,0.47,true,473766.200000003,473764.799999997,471484.004,471962.5,471958.902,473775.703,,,
choice,canvas.Screen,0_8_2_2,2022-07-15T22:06:43.182Z,,,,0.49,,4,999.9459999999963,timeout,,,0.49,,0.47,,,2,5,,,,,,,,,,,0.47,true,474768.09999999404,474767.343,473767.056,473772.90000000596,473775.703,474775.649,105,,
ITI,canvas.Screen,0_8_2_3,2022-07-15T22:06:43.682Z,,,2419,,,4,500.0020000000368,timeout,,,0.49,,,,,,,,,,,,,,,,,0.47,true,475267.700000003,475267.356,474767.343,474768.200000003,474775.649,475275.651,,,
trial,flow.Sequence,0_8_2,2022-07-15T22:06:43.682Z,,,,,,4,4275.033000000054,completion,,,0.49,,,,,,,,,,,,,,,,,0.47,true,475267.799999997,475267.356,470983.988,470984.700000003,470992.323,475275.651,,,
fixation,canvas.Screen,0_8_3_0,2022-07-15T22:06:44.183Z,,,,,,6,691.6929999999702,timeout,,,0.485,,,,,,,,,,,,,,,,,0.455,false,475768.200000003,475767.364,475267.356,475267.90000000596,475275.651,475967.344,,,
stimulus,canvas.Screen,0_8_3_1,2022-07-15T22:06:45.041Z,,,,,,6,658.1560000000172,response,,0.485,0.485,,,https://raw.githubusercontent.com/carero2/loss-perception/main/png/0.485blue1yellowb%3D1w%3D100v%3D79.png,https://raw.githubusercontent.com/carero2/loss-perception/main/png/0.455blue1yellowb%3D1w%3D100v%3D79.png,,,,,,,,,true,j,keypress(j),0.455,0.455,false,476626.40000000596,476625.5,475767.364,475971,475967.344,476649.725,,,
choice,canvas.Screen,0_8_3_2,2022-07-15T22:06:46.058Z,,,,0.455,,6,1001.0109999999986,timeout,,,0.485,,0.485,,,9,14,,,,,,,,,,,0.455,false,477643.299999997,477642.469,476625.698,476633,476649.725,477650.736,114,,
ITI,canvas.Screen,0_8_3_3,2022-07-15T22:06:46.557Z,,,2142,,,6,500.0350000000326,timeout,,,0.485,,,,,,,,,,,,,,,,,0.455,false,478142.90000000596,478142.406,477642.469,477643.299999997,477650.736,478150.771,,,
trial,flow.Sequence,0_8_3,2022-07-15T22:06:46.557Z,,,,,,6,2866.7550000000047,completion,,,0.485,,,,,,,,,,,,,,,,,0.455,false,478143.09999999404,478142.406,475267.356,475267.90000000596,475275.651,478150.771,,,
fixation,canvas.Screen,0_8_4_0,2022-07-15T22:06:47.057Z,,,,,,2,749.9249999999884,timeout,,,0.515,,,,,,,,,,,,,,,,,0.505,true,478643.09999999404,478642.466,478142.406,478143.09999999404,478150.771,478900.696,,,
stimulus,canvas.Screen,0_8_4_1,2022-07-15T22:06:48.676Z,,,,,,2,1360.1039999970235,response,,0.505,0.515,,,https://raw.githubusercontent.com/carero2/loss-perception/main/png/0.505blue1yellowb%3D1w%3D100v%3D19.png,https://raw.githubusercontent.com/carero2/loss-perception/main/png/0.515blue1yellowb%3D1w%3D100v%3D19.png,,,,,,,,,true,j,keypress(j),0.515,0.505,true,480261.40000000596,480260.799999997,478642.466,478904.09999999404,478900.696,480275.897,,,
choice,canvas.Screen,0_8_4_2,2022-07-15T22:06:49.683Z,,,,0.515,,2,999.8819999999832,timeout,,,0.515,,0.505,,,-3,11,,,,,,,,,,,0.505,true,481268.299999997,481267.508,480267.369,480268,480275.897,481275.779,111,,
ITI,canvas.Screen,0_8_4_3,2022-07-15T22:06:50.182Z,,,2055,,,2,500.1000000000349,timeout,,,0.515,,,,,,,,,,,,,,,,,0.505,true,481768.09999999404,481767.503,481267.508,481268.40000000596,481275.779,481775.879,,,
trial,flow.Sequence,0_8_4,2022-07-15T22:06:50.183Z,,,,,,2,3616.732000000018,completion,,,0.515,,,,,,,,,,,,,,,,,0.505,true,481768.200000003,481767.503,478142.406,478143.09999999404,478150.771,481775.879,,,
fixation,canvas.Screen,0_8_5_0,2022-07-15T22:06:50.682Z,,,,,,6,741.6529999999912,timeout,,,0.515,,,,,,,,,,,,,,,,,0.485,true,482268.09999999404,482267.558,481767.503,481768.200000003,481775.879,482517.532,,,
stimulus,canvas.Screen,0_8_5_1,2022-07-15T22:06:52.225Z,,,,,,6,1292.2679999970132,response,,0.485,0.515,,,https://raw.githubusercontent.com/carero2/loss-perception/main/png/0.485blue1yellowb%3D1w%3D100v%3D40.png,https://raw.githubusercontent.com/carero2/loss-perception/main/png/0.515blue1yellowb%3D1w%3D100v%3D40.png,,,,,,,,,true,f,keypress(f),0.515,0.485,true,483810.5,483809.799999997,482267.558,482520.90000000596,482517.532,483838.696,,,
choice,canvas.Screen,0_8_5_2,2022-07-15T22:06:53.249Z,,,,0.485,,6,1003.8329999999842,timeout,,,0.515,,0.515,,,3,14,,,,,,,,,,,0.485,true,484834.799999997,484834.241,483809.311,483817,483838.696,484842.529,114,,
ITI,canvas.Screen,0_8_5_3,2022-07-15T22:06:53.749Z,,,2445,,,6,500.0370000000112,timeout,,,0.515,,,,,,,,,,,,,,,,,0.485,true,485334.90000000596,485334.258,484834.241,484835.200000003,484842.529,485342.566,,,
trial,flow.Sequence,0_8_5,2022-07-15T22:06:53.749Z,,,,,,6,3558.378999999957,completion,,,0.515,,,,,,,,,,,,,,,,,0.485,true,485335,485334.258,481767.503,481768.200000003,481775.879,485342.566,,,
fixation,canvas.Screen,0_8_6_0,2022-07-15T22:06:54.249Z,,,,,,6,666.7110000000102,timeout,,,0.545,,,,,,,,,,,,,,,,,0.515,true,485834.799999997,485834.276,485334.258,485335.09999999404,485342.566,486009.277,,,
stimulus,canvas.Screen,0_8_6_1,2022-07-15T22:06:55.399Z,,,,,,6,974.6230000059586,response,,0.515,0.545,,,https://raw.githubusercontent.com/carero2/loss-perception/main/png/0.515blue1yellowb%3D1w%3D100v%3D44.png,https://raw.githubusercontent.com/carero2/loss-perception/main/png/0.545blue1yellowb%3D1w%3D100v%3D44.png,,,,,,,,,true,j,keypress(j),0.545,0.515,true,486984.799999997,486983.90000000596,485834.276,486012.700000003,486009.277,487001.064,,,
choice,canvas.Screen,0_8_6_2,2022-07-15T22:06:56.408Z,,,,0.545,,6,999.8989999999758,timeout,,,0.545,,0.515,,,-9,5,,,,,,,,,,,0.515,true,487993.200000003,487992.636,486992.501,486995.200000003,487001.064,488000.963,105,,
ITI,canvas.Screen,0_8_6_3,2022-07-15T22:06:56.908Z,,,2730,,,6,500.07300000003306,timeout,,,0.545,,,,,,,,,,,,,,,,,0.515,true,488493.299999997,488492.675,487992.636,487993.200000003,488000.963,488501.036,,,
trial,flow.Sequence,0_8_6,2022-07-15T22:06:56.908Z,,,,,,6,3150.1089999999967,completion,,,0.545,,,,,,,,,,,,,,,,,0.515,true,488493.40000000596,488492.675,485334.258,485335.09999999404,485342.566,488501.036,,,
fixation,canvas.Screen,0_8_7_0,2022-07-15T22:06:57.408Z,,,,,,4,791.536999999953,timeout,,,0.53,,,,,,,,,,,,,,,,,0.51,true,488993.200000003,488992.657,488492.675,488493.5,488501.036,489292.573,,,
stimulus,canvas.Screen,0_8_7_1,2022-07-15T22:06:58.571Z,,,,,,4,863.1270000030054,response,,0.51,0.53,,,https://raw.githubusercontent.com/carero2/loss-perception/main/png/0.51blue1yellowb%3D1w%3D100v%3D27.png,https://raw.githubusercontent.com/carero2/loss-perception/main/png/0.53blue1yellowb%3D1w%3D100v%3D27.png,,,,,,,,,true,j,keypress(j),0.53,0.51,true,490156.40000000596,490155.700000003,488992.657,489298.799999997,489292.573,490182.431,,,
choice,canvas.Screen,0_8_7_2,2022-07-15T22:06:59.591Z,,,,0.53,,4,1001.9580000000424,timeout,,,0.53,,0.51,,,-6,-1,,,,,,,,,,,0.51,true,491176.59999999404,491176.036,490159.334,490166.799999997,490182.431,491184.389,99,,
ITI,canvas.Screen,0_8_7_3,2022-07-15T22:07:00.091Z,,,2761,,,4,499.99099999998,timeout,,,0.53,,,,,,,,,,,,,,,,,0.51,true,491676.700000003,491676.046,491176.036,491176.700000003,491184.389,491684.38,,,
trial,flow.Sequence,0_8_7,2022-07-15T22:07:00.091Z,,,,,,4,3175.009999999951,completion,,,0.53,,,,,,,,,,,,,,,,,0.51,true,491676.90000000596,491676.046,488492.675,488493.5,488501.036,491684.38,,,
fixation,canvas.Screen,0_8_8_0,2022-07-15T22:07:00.591Z,,,,,,2,674.9110000000219,timeout,,,0.505,,,,,,,,,,,,,,,,,0.495,true,492176.700000003,492176.048,491676.046,491677,491684.38,492359.291,,,
stimulus,canvas.Screen,0_8_8_1,2022-07-15T22:07:01.783Z,,,,,,2,1008.6090000059339,response,,0.495,0.505,,,https://raw.githubusercontent.com/carero2/loss-perception/main/png/0.495blue1yellowb%3D1w%3D100v%3D49.png,https://raw.githubusercontent.com/carero2/loss-perception/main/png/0.505blue1yellowb%3D1w%3D100v%3D49.png,,,,,,,,,true,j,keypress(j),0.505,0.495,true,493368.700000003,493367.90000000596,492176.048,492362.59999999404,492359.291,493384.437,,,
choice,canvas.Screen,0_8_8_2,2022-07-15T22:07:02.791Z,,,,0.505,,2,999.960000000021,timeout,,,0.505,,0.495,,,-1,-2,,,,,,,,,,,0.495,true,494376.700000003,494376.101,493376.033,493378.59999999404,493384.437,494384.397,98,,
ITI,canvas.Screen,0_8_8_3,2022-07-15T22:07:03.291Z,,,2797,,,2,500.0100000000093,timeout,,,0.505,,,,,,,,,,,,,,,,,0.495,true,494876.799999997,494876.113,494376.101,494376.799999997,494384.397,494884.407,,,
trial,flow.Sequence,0_8_8,2022-07-15T22:07:03.292Z,,,,,,2,3191.7330000000075,completion,,,0.505,,,,,,,,,,,,,,,,,0.495,true,494877,494876.113,491676.046,491677,491684.38,494884.407,,,
fixation,canvas.Screen,0_8_9_0,2022-07-15T22:07:03.791Z,,,,,,4,808.3030000000144,timeout,,,0.51,,,,,,,,,,,,,,,,,0.49,false,495376.799999997,495376.145,494876.113,494877,494884.407,495692.71,,,
stimulus,canvas.Screen,0_8_9_1,2022-07-15T22:07:05.008Z,,,,,,4,900.0899999969988,response,,0.51,0.51,,,https://raw.githubusercontent.com/carero2/loss-perception/main/png/0.51blue1yellowb%3D1w%3D100v%3D20.png,https://raw.githubusercontent.com/carero2/loss-perception/main/png/0.49blue1yellowb%3D1w%3D100v%3D20.png,,,,,,,,,true,j,keypress(j),0.49,0.49,false,496593.700000003,496592.799999997,495376.145,495696,495692.71,496626.13,,,
choice,canvas.Screen,0_8_9_2,2022-07-15T22:07:06.033Z,,,,0.49,,4,999.9959999999846,timeout,,,0.51,,0.51,,,2,0,,,,,,,,,,,0.49,false,497618.700000003,497617.841,496618.91,496600.59999999404,496626.13,497626.126,100,,
ITI,canvas.Screen,0_8_9_3,2022-07-15T22:07:06.533Z,,,2073,,,4,500.07400000002235,timeout,,,0.51,,,,,,,,,,,,,,,,,0.49,false,498118.40000000596,498117.839,497617.841,497618.700000003,497626.126,498126.2,,,
trial,flow.Sequence,0_8_9,2022-07-15T22:07:06.533Z,,,,,,4,3233.4319999999716,completion,,,0.51,,,,,,,,,,,,,,,,,0.49,false,498118.5,498117.839,494876.113,494877,494884.407,498126.2,,,
fixation,canvas.Screen,0_8_10_0,2022-07-15T22:07:07.033Z,,,,,,4,533.2050000000163,timeout,,,0.49,,,,,,,,,,,,,,,,,0.47,false,498618.40000000596,498617.847,498117.839,498118.5,498126.2,498659.405,,,
stimulus,canvas.Screen,0_8_10_1,2022-07-15T22:07:07.954Z,,,,,,4,879.2950000029523,response,,0.49,0.49,,,https://raw.githubusercontent.com/carero2/loss-perception/main/png/0.49blue1yellowb%3D1w%3D100v%3D72.png,https://raw.githubusercontent.com/carero2/loss-perception/main/png/0.47blue1yellowb%3D1w%3D100v%3D72.png,,,,,,,,,true,j,keypress(j),0.47,0.47,false,499539.59999999404,499538.700000003,498617.847,498662.700000003,498659.405,499551.178,,,
choice,canvas.Screen,0_8_10_2,2022-07-15T22:07:08.958Z,,,,0.47,,4,1000.0599999999977,timeout,,,0.49,,0.49,,,6,6,,,,,,,,,,,0.47,false,500543.40000000596,500542.892,499542.735,499549.5,499551.178,500551.238,106,,
ITI,canvas.Screen,0_8_10_3,2022-07-15T22:07:09.458Z,,,2653,,,4,500.0019999999786,timeout,,,0.49,,,,,,,,,,,,,,,,,0.47,false,501043.40000000596,501042.855,500542.892,500543.5,500551.238,501051.24,,,
trial,flow.Sequence,0_8_10,2022-07-15T22:07:09.458Z,,,,,,4,2916.6549999999697,completion,,,0.49,,,,,,,,,,,,,,,,,0.47,false,501043.700000003,501042.855,498117.839,498118.5,498126.2,501051.24,,,
fixation,canvas.Screen,0_8_11_0,2022-07-15T22:07:09.958Z,,,,,,6,723.4419999999809,timeout,,,0.485,,,,,,,,,,,,,,,,,0.455,true,501543.40000000596,501542.89,501042.855,501043.799999997,501051.24,501774.682,,,
stimulus,canvas.Screen,0_8_11_1,2022-07-15T22:07:11.011Z,,,,,,6,821.1179999970482,response,,0.455,0.485,,,https://raw.githubusercontent.com/carero2/loss-perception/main/png/0.455blue1yellowb%3D1w%3D100v%3D42.png,https://raw.githubusercontent.com/carero2/loss-perception/main/png/0.485blue1yellowb%3D1w%3D100v%3D42.png,,,,,,,,,true,j,keypress(j),0.485,0.455,true,502596.59999999404,502595.799999997,501542.89,501781.09999999404,501774.682,502609.561,,,
choice,canvas.Screen,0_8_11_2,2022-07-15T22:07:12.016Z,,,,0.485,,6,1000.1110000000335,timeout,,,0.485,,0.455,,,3,9,,,,,,,,,,,0.455,true,503601.90000000596,503601.289,502601.259,502603.200000003,502609.561,503609.672,109,,
ITI,canvas.Screen,0_8_11_3,2022-07-15T22:07:12.516Z,,,2388,,,6,500.02999999996973,timeout,,,0.485,,,,,,,,,,,,,,,,,0.455,true,504101.799999997,504101.289,503601.289,503602,503609.672,504109.702,,,
trial,flow.Sequence,0_8_11,2022-07-15T22:07:12.517Z,,,,,,6,3050.048999999999,completion,,,0.485,,,,,,,,,,,,,,,,,0.455,true,504101.90000000596,504101.289,501042.855,501043.799999997,501051.24,504109.702,,,
fixation,canvas.Screen,0_8_12_0,2022-07-15T22:07:13.016Z,,,,,,2,766.5109999999986,timeout,,,0.505,,,,,,,,,,,,,,,,,0.495,true,504601.799999997,504601.305,504101.289,504102,504109.702,504876.213,,,
stimulus,canvas.Screen,0_8_12_1,2022-07-15T22:07:14.455Z,,,,,,2,1163.586999997031,response,,0.495,0.505,,,https://raw.githubusercontent.com/carero2/loss-perception/main/png/0.495blue1yellowb%3D1w%3D100v%3D29.png,https://raw.githubusercontent.com/carero2/loss-perception/main/png/0.505blue1yellowb%3D1w%3D100v%3D29.png,,,,,,,,,true,f,keypress(f),0.505,0.495,true,506040.40000000596,506039.799999997,504601.305,504879.700000003,504876.213,506051.355,,,
choice,canvas.Screen,0_8_12_2,2022-07-15T22:07:15.458Z,,,,0.495,,2,1000.0010000000475,timeout,,,0.505,,0.505,,,1,10,,,,,,,,,,,0.495,true,507043.5,507043.017,506042.56,506047.200000003,506051.355,507051.356,110,,
ITI,canvas.Screen,0_8_12_3,2022-07-15T22:07:15.958Z,,,2637,,,2,500.00399999995716,timeout,,,0.505,,,,,,,,,,,,,,,,,0.495,true,507543.59999999404,507543.015,507043.017,507043.5,507051.356,507551.36,,,
trial,flow.Sequence,0_8_12,2022-07-15T22:07:15.958Z,,,,,,2,3433.3130000000237,completion,,,0.505,,,,,,,,,,,,,,,,,0.495,true,507543.700000003,507543.015,504101.289,504102,504109.702,507551.36,,,
fixation,canvas.Screen,0_8_13_0,2022-07-15T22:07:16.458Z,,,,,,6,691.6280000000261,timeout,,,0.545,,,,,,,,,,,,,,,,,0.515,false,508043.59999999404,508043.053,507543.015,507543.700000003,507551.36,508242.988,,,
stimulus,canvas.Screen,0_8_13_1,2022-07-15T22:07:17.594Z,,,,,,6,936.1119999940274,response,,0.545,0.545,,,https://raw.githubusercontent.com/carero2/loss-perception/main/png/0.545blue1yellowb%3D1w%3D100v%3D19.png,https://raw.githubusercontent.com/carero2/loss-perception/main/png/0.515blue1yellowb%3D1w%3D100v%3D19.png,,,,,,,,,true,j,keypress(j),0.515,0.515,false,509179.90000000596,509179.09999999404,508043.053,508246.5,508242.988,509193.107,,,
choice,canvas.Screen,0_8_13_2,2022-07-15T22:07:18.600Z,,,,0.515,,6,999.9629999999888,timeout,,,0.545,,0.545,,,-3,7,,,,,,,,,,,0.515,false,510185.299999997,510184.76,509184.585,509186.700000003,509193.107,510193.07,107,,
ITI,canvas.Screen,0_8_13_3,2022-07-15T22:07:19.100Z,,,2781,,,6,500.1020000000135,timeout,,,0.545,,,,,,,,,,,,,,,,,0.515,false,510685.299999997,510684.747,510184.76,510185.40000000596,510193.07,510693.172,,,
trial,flow.Sequence,0_8_13,2022-07-15T22:07:19.100Z,,,,,,6,3133.386999999988,completion,,,0.545,,,,,,,,,,,,,,,,,0.515,false,510685.40000000596,510684.747,507543.015,507543.700000003,507551.36,510693.172,,,
fixation,canvas.Screen,0_8_14_0,2022-07-15T22:07:19.600Z,,,,,,2,683.1680000000051,timeout,,,0.495,,,,,,,,,,,,,,,,,0.485,true,511185.200000003,511184.76,510684.747,510685.5,510693.172,511376.34,,,
stimulus,canvas.Screen,0_8_14_1,2022-07-15T22:07:21.294Z,,,,,,2,1502.759999994014,response,,0.485,0.495,,,https://raw.githubusercontent.com/carero2/loss-perception/main/png/0.485blue1yellowb%3D1w%3D100v%3D94.png,https://raw.githubusercontent.com/carero2/loss-perception/main/png/0.495blue1yellowb%3D1w%3D100v%3D94.png,,,,,,,,,true,f,keypress(f),0.495,0.485,true,512879.799999997,512879.09999999404,511184.76,511379.700000003,511376.34,512893.303,,,
choice,canvas.Screen,0_8_14_2,2022-07-15T22:07:22.300Z,,,,0.485,,2,999.8520000000135,timeout,,,0.495,,0.495,,,3,10,,,,,,,,,,,0.485,true,513885.200000003,513884.756,512884.497,512886.700000003,512893.303,513893.155,110,,
ITI,canvas.Screen,0_8_14_3,2022-07-15T22:07:22.800Z,,,2169,,,2,500.1049999999814,timeout,,,0.495,,,,,,,,,,,,,,,,,0.485,true,514385.40000000596,514384.786,513884.756,513885.299999997,513893.155,514393.26,,,
trial,flow.Sequence,0_8_14,2022-07-15T22:07:22.800Z,,,,,,2,3691.6140000000014,completion,,,0.495,,,,,,,,,,,,,,,,,0.485,true,514385.40000000596,514384.786,510684.747,510685.5,510693.172,514393.26,,,
fixation,canvas.Screen,0_8_15_0,2022-07-15T22:07:23.300Z,,,,,,2,766.5339999999851,timeout,,,0.515,,,,,,,,,,,,,,,,,0.505,true,514885.40000000596,514884.865,514384.786,514385.5,514393.26,515159.794,,,
stimulus,canvas.Screen,0_8_15_1,2022-07-15T22:07:24.376Z,,,,,,2,801.106000005966,response,,0.505,0.515,,,https://raw.githubusercontent.com/carero2/loss-perception/main/png/0.505blue1yellowb%3D1w%3D100v%3D56.png,https://raw.githubusercontent.com/carero2/loss-perception/main/png/0.515blue1yellowb%3D1w%3D100v%3D56.png,,,,,,,,,true,j,keypress(j),0.515,0.505,true,515961.5,515960.90000000596,514884.865,515163.200000003,515159.794,515976.56,,,
choice,canvas.Screen,0_8_15_2,2022-07-15T22:07:25.383Z,,,,0.515,,2,999.9369999999763,timeout,,,0.515,,0.505,,,-3,7,,,,,,,,,,,0.505,true,516968.700000003,516968.196,515968.24,515968.40000000596,515976.56,516976.497,107,,
ITI,canvas.Screen,0_8_15_3,2022-07-15T22:07:25.883Z,,,2724,,,2,500.1500000000233,timeout,,,0.515,,,,,,,,,,,,,,,,,0.505,true,517468.799999997,517468.216,516968.196,516968.799999997,516976.497,517476.647,,,
trial,flow.Sequence,0_8_15,2022-07-15T22:07:25.883Z,,,,,,2,3074.9560000000056,completion,,,0.515,,,,,,,,,,,,,,,,,0.505,true,517468.90000000596,517468.216,514384.786,514385.5,514393.26,517476.647,,,
fixation,canvas.Screen,0_8_16_0,2022-07-15T22:07:26.383Z,,,,,,4,691.5840000000317,timeout,,,0.53,,,,,,,,,,,,,,,,,0.51,true,517968.799999997,517968.232,517468.216,517468.90000000596,517476.647,518168.231,,,
stimulus,canvas.Screen,0_8_16_1,2022-07-15T22:07:28.083Z,,,,,,4,1499.068999996991,response,,0.51,0.53,,,https://raw.githubusercontent.com/carero2/loss-perception/main/png/0.51blue1yellowb%3D1w%3D100v%3D32.png,https://raw.githubusercontent.com/carero2/loss-perception/main/png/0.53blue1yellowb%3D1w%3D100v%3D32.png,,,,,,,,,true,f,keypress(f),0.53,0.51,true,519668,519667.299999997,517968.232,518172.700000003,518168.231,519685.001,,,
choice,canvas.Screen,0_8_16_2,2022-07-15T22:07:29.092Z,,,,0.51,,4,999.9980000000214,timeout,,,0.53,,0.53,,,-2,5,,,,,,,,,,,0.51,true,520677.09999999404,520676.623,519676.055,519678.299999997,519685.001,520684.999,105,,
ITI,canvas.Screen,0_8_16_3,2022-07-15T22:07:29.592Z,,,2192,,,4,499.91399999998976,timeout,,,0.53,,,,,,,,,,,,,,,,,0.51,true,521177.09999999404,521176.616,520676.623,520677.200000003,520684.999,521184.913,,,
trial,flow.Sequence,0_8_16,2022-07-15T22:07:29.592Z,,,,,,4,3699.9689999999828,completion,,,0.53,,,,,,,,,,,,,,,,,0.51,true,521177.299999997,521176.616,517468.216,517468.90000000596,517476.647,521184.913,,,
fixation,canvas.Screen,0_8_17_0,2022-07-15T22:07:30.092Z,,,,,,6,525.0030000000261,timeout,,,0.515,,,,,,,,,,,,,,,,,0.485,true,521677.200000003,521676.636,521176.616,521177.299999997,521184.913,521709.916,,,
stimulus,canvas.Screen,0_8_17_1,2022-07-15T22:07:31.562Z,,,,,,6,1436.984000005934,response,,0.485,0.515,,,https://raw.githubusercontent.com/carero2/loss-perception/main/png/0.485blue1yellowb%3D1w%3D100v%3D32.png,https://raw.githubusercontent.com/carero2/loss-perception/main/png/0.515blue1yellowb%3D1w%3D100v%3D32.png,,,,,,,,,true,f,keypress(f),0.515,0.485,true,523147.5,523146.90000000596,521676.636,521713.5,521709.916,523160.003,,,
choice,canvas.Screen,0_8_17_2,2022-07-15T22:07:32.567Z,,,,0.485,,6,999.9179999999469,timeout,,,0.515,,0.515,,,3,8,,,,,,,,,,,0.485,true,524152.5,524151.71,523151.421,523154.299999997,523160.003,524159.921,108,,
ITI,canvas.Screen,0_8_17_3,2022-07-15T22:07:33.067Z,,,2777,,,6,500.1450000000186,timeout,,,0.515,,,,,,,,,,,,,,,,,0.485,true,524652.200000003,524651.694,524151.71,524152.59999999404,524159.921,524660.066,,,
trial,flow.Sequence,0_8_17,2022-07-15T22:07:33.067Z,,,,,,6,3466.7810000000172,completion,,,0.515,,,,,,,,,,,,,,,,,0.485,true,524652.400000006,524651.694,521176.616,521177.299999997,521184.913,524660.066,,,
fixation,canvas.Screen,0_8_18_0,2022-07-15T22:07:33.567Z,,,,,,4,708.2469999999739,timeout,,,0.49,,,,,,,,,,,,,,,,,0.47,true,525152.200000003,525151.696,524651.694,524652.400000006,524660.066,525368.313,,,
stimulus,canvas.Screen,0_8_18_1,2022-07-15T22:07:35.141Z,,,,,,4,1357.587000005995,response,,0.47,0.49,,,https://raw.githubusercontent.com/carero2/loss-perception/main/png/0.47blue1yellowb%3D1w%3D100v%3D82.png,https://raw.githubusercontent.com/carero2/loss-perception/main/png/0.49blue1yellowb%3D1w%3D100v%3D82.png,,,,,,,,,true,f,keypress(f),0.49,0.47,true,526726.5,526725.900000006,525151.696,525371.700000003,525368.313,526734.964,,,
choice,canvas.Screen,0_8_18_2,2022-07-15T22:07:36.142Z,,,,0.47,,4,1000.1689999999944,timeout,,,0.49,,0.49,,,6,14,,,,,,,,,,,0.47,true,527727.299999997,527726.716,526726.553,526733.299999997,526734.964,527735.133,114,,
ITI,canvas.Screen,0_8_18_3,2022-07-15T22:07:36.642Z,,,2685,,,4,499.93900000001304,timeout,,,0.49,,,,,,,,,,,,,,,,,0.47,true,528227.299999997,528226.751,527726.716,527727.299999997,527735.133,528235.072,,,
trial,flow.Sequence,0_8_18,2022-07-15T22:07:36.642Z,,,,,,4,3566.685000000056,completion,,,0.49,,,,,,,,,,,,,,,,,0.47,true,528227.400000006,528226.751,524651.694,524652.400000006,524660.066,528235.072,,,
fixation,canvas.Screen,0_8_19_0,2022-07-15T22:07:37.142Z,,,,,,6,741.6329999999143,timeout,,,0.515,,,,,,,,,,,,,,,,,0.485,false,528727.299999997,528726.741,528226.751,528227.5,528235.072,528976.705,,,
stimulus,canvas.Screen,0_8_19_1,2022-07-15T22:07:38.149Z,,,,,,6,756.5949999970617,response,,0.515,0.515,,,https://raw.githubusercontent.com/carero2/loss-perception/main/png/0.515blue1yellowb%3D1w%3D100v%3D45.png,https://raw.githubusercontent.com/carero2/loss-perception/main/png/0.485blue1yellowb%3D1w%3D100v%3D45.png,,,,,,,,,true,j,keypress(j),0.485,0.485,false,529734,529733.299999997,528726.741,528980.299999997,528976.705,529743.378,,,
choice,canvas.Screen,0_8_19_2,2022-07-15T22:07:39.150Z,,,,0.485,,6,1000.1489999999758,timeout,,,0.515,,0.515,,,3,17,,,,,,,,,,,0.485,false,530735.799999997,530735.147,529735.188,529740.700000003,529743.378,530743.527,117,,
ITI,canvas.Screen,0_8_19_3,2022-07-15T22:07:39.650Z,,,2775,,,6,500.0529999999562,timeout,,,0.515,,,,,,,,,,,,,,,,,0.485,false,531235.599999994,531235.159,530735.147,530735.900000006,530743.527,531243.58,,,
trial,flow.Sequence,0_8_19,2022-07-15T22:07:39.650Z,,,,,,6,3000.0869999999413,completion,,,0.515,,,,,,,,,,,,,,,,,0.485,false,531235.799999997,531235.159,528226.751,528227.400000006,528235.072,531243.58,,,
fixation,canvas.Screen,0_8_20_0,2022-07-15T22:07:40.150Z,,,,,,2,741.564000000013,timeout,,,0.515,,,,,,,,,,,,,,,,,0.505,true,531735.599999994,531735.077,531235.159,531235.900000006,531243.58,531985.144,,,
stimulus,canvas.Screen,0_8_20_1,2022-07-15T22:07:42.288Z,,,,,,2,1887.9559999940684,response,,0.505,0.515,,,https://raw.githubusercontent.com/carero2/loss-perception/main/png/0.505blue1yellowb%3D1w%3D100v%3D95.png,https://raw.githubusercontent.com/carero2/loss-perception/main/png/0.515blue1yellowb%3D1w%3D100v%3D95.png,,,,,,,,,true,f,keypress(f),0.515,0.505,true,533873.799999997,533873.099999994,531735.077,531988.5,531985.144,533885.201,,,
choice,canvas.Screen,0_8_20_2,2022-07-15T22:07:43.292Z,,,,0.505,,2,999.984000000055,timeout,,,0.515,,0.515,,,-1,16,,,,,,,,,,,0.505,true,534877.400000006,534876.89,533876.221,533880.5,533885.201,534885.185,116,,
ITI,canvas.Screen,0_8_20_3,2022-07-15T22:07:43.792Z,,,2728,,,2,500.12899999995716,timeout,,,0.515,,,,,,,,,,,,,,,,,0.505,true,535377.5,535376.906,534876.89,534877.400000006,534885.185,535385.314,,,
trial,flow.Sequence,0_8_20,2022-07-15T22:07:43.792Z,,,,,,2,4133.326000000001,completion,,,0.515,,,,,,,,,,,,,,,,,0.505,true,535377.599999994,535376.906,531235.159,531235.799999997,531243.58,535385.314,,,
fixation,canvas.Screen,0_8_21_0,2022-07-15T22:07:44.292Z,,,,,,2,533.2909999999683,timeout,,,0.495,,,,,,,,,,,,,,,,,0.485,true,535877.5,535876.941,535376.906,535377.700000003,535385.314,535918.605,,,
stimulus,canvas.Screen,0_8_21_1,2022-07-15T22:07:46.612Z,,,,,,2,2278.3950000000186,response,,0.485,0.495,,,https://raw.githubusercontent.com/carero2/loss-perception/main/png/0.485blue1yellowb%3D1w%3D100v%3D79.png,https://raw.githubusercontent.com/carero2/loss-perception/main/png/0.495blue1yellowb%3D1w%3D100v%3D79.png,,,,,,,,,true,f,keypress(f),0.495,0.485,true,538197.799999997,538197,535876.941,535922,535918.605,538210.312,,,
choice,canvas.Screen,0_8_21_2,2022-07-15T22:07:47.617Z,,,,0.485,,2,999.9780000000028,timeout,,,0.495,,0.495,,,3,19,,,,,,,,,,,0.485,true,539202.599999994,539201.98,538201.462,538204.5,538210.312,539210.29,119,,
ITI,canvas.Screen,0_8_21_3,2022-07-15T22:07:48.117Z,,,2721,,,2,500.01599999994505,timeout,,,0.495,,,,,,,,,,,,,,,,,0.485,true,539702.700000003,539701.979,539201.98,539202.700000003,539210.29,539710.306,,,
trial,flow.Sequence,0_8_21,2022-07-15T22:07:48.117Z,,,,,,2,4316.665000000037,completion,,,0.495,,,,,,,,,,,,,,,,,0.485,true,539702.900000006,539701.979,535376.906,535377.700000003,535385.314,539710.306,,,
fixation,canvas.Screen,0_8_22_0,2022-07-15T22:07:48.617Z,,,,,,6,758.2770000000019,timeout,,,0.485,,,,,,,,,,,,,,,,,0.455,false,540202.599999994,540202.034,539701.979,539702.900000006,539710.306,540468.583,,,
stimulus,canvas.Screen,0_8_22_1,2022-07-15T22:07:49.605Z,,,,,,6,721.7169999970356,response,,0.485,0.485,,,https://raw.githubusercontent.com/carero2/loss-perception/main/png/0.485blue1yellowb%3D1w%3D100v%3D61.png,https://raw.githubusercontent.com/carero2/loss-perception/main/png/0.455blue1yellowb%3D1w%3D100v%3D61.png,,,,,,,,,true,j,keypress(j),0.455,0.455,false,541190.799999997,541190.299999997,540202.034,540471.900000006,540468.583,541201.982,,,
choice,canvas.Screen,0_8_22_2,2022-07-15T22:07:50.609Z,,,,0.455,,6,999.9550000000745,timeout,,,0.485,,0.485,,,9,28,,,,,,,,,,,0.455,false,542194.400000006,542193.679,541193.472,541198.299999997,541201.982,542201.937,128,,
ITI,canvas.Screen,0_8_22_3,2022-07-15T22:07:51.109Z,,,2394,,,6,500.1919999999227,timeout,,,0.485,,,,,,,,,,,,,,,,,0.455,false,542694.200000003,542693.688,542193.679,542194.5,542201.937,542702.129,,,
trial,flow.Sequence,0_8_22,2022-07-15T22:07:51.109Z,,,,,,6,2983.3819999999832,completion,,,0.485,,,,,,,,,,,,,,,,,0.455,false,542694.400000006,542693.688,539701.979,539702.900000006,539710.306,542702.129,,,
fixation,canvas.Screen,0_8_23_0,2022-07-15T22:07:51.609Z,,,,,,4,758.1820000000298,timeout,,,0.51,,,,,,,,,,,,,,,,,0.49,true,543194.099999994,543193.693,542693.688,542694.5,542702.129,543460.311,,,
stimulus,canvas.Screen,0_8_23_1,2022-07-15T22:07:54.591Z,,,,,,4,2714.988999997033,response,,0.49,0.51,,,https://raw.githubusercontent.com/carero2/loss-perception/main/png/0.49blue1yellowb%3D1w%3D100v%3D69.png,https://raw.githubusercontent.com/carero2/loss-perception/main/png/0.51blue1yellowb%3D1w%3D100v%3D69.png,,,,,,,,,true,f,keypress(f),0.51,0.49,true,546176,546175.299999997,543193.693,543463.799999997,543460.311,546185.439,,,
choice,canvas.Screen,0_8_23_2,2022-07-15T22:07:55.592Z,,,,0.49,,4,1000.1269999999786,timeout,,,0.51,,0.51,,,2,30,,,,,,,,,,,0.49,true,547177.799999997,547177.102,546177.195,546182.900000006,546185.439,547185.566,130,,
ITI,canvas.Screen,0_8_23_3,2022-07-15T22:07:56.092Z,,,2897,,,4,499.9350000000559,timeout,,,0.51,,,,,,,,,,,,,,,,,0.49,true,547677.700000003,547677.12,547177.102,547177.900000006,547185.566,547685.501,,,
trial,flow.Sequence,0_8_23,2022-07-15T22:07:56.092Z,,,,,,4,4974.991000000038,completion,,,0.51,,,,,,,,,,,,,,,,,0.49,true,547677.700000003,547677.12,542693.688,542694.5,542702.129,547685.501,,,
fixation,canvas.Screen,0_8_24_0,2022-07-15T22:07:56.592Z,,,,,,6,666.6769999999087,timeout,,,0.545,,,,,,,,,,,,,,,,,0.515,true,548177.599999994,548177.124,547677.12,547677.799999997,547685.501,548352.178,,,
stimulus,canvas.Screen,0_8_24_1,2022-07-15T22:07:58.476Z,,,,,,6,1708.1219999970635,response,,0.515,0.545,,,https://raw.githubusercontent.com/carero2/loss-perception/main/png/0.515blue1yellowb%3D1w%3D100v%3D69.png,https://raw.githubusercontent.com/carero2/loss-perception/main/png/0.545blue1yellowb%3D1w%3D100v%3D69.png,,,,,,,,,true,f,keypress(f),0.545,0.515,true,550061.099999994,550060.299999997,548177.124,548355.599999994,548352.178,550093.839,,,
choice,canvas.Screen,0_8_24_2,2022-07-15T22:07:59.501Z,,,,0.515,,6,1000.0969999999506,timeout,,,0.545,,0.545,,,-3,27,,,,,,,,,,,0.515,true,551086.200000003,551085.538,550088.094,550068,550093.839,551093.936,127,,
ITI,canvas.Screen,0_8_24_3,2022-07-15T22:08:00.001Z,,,2791,,,6,499.97200000006706,timeout,,,0.545,,,,,,,,,,,,,,,,,0.515,true,551586.200000003,551585.544,551085.538,551086.200000003,551093.936,551593.908,,,
trial,flow.Sequence,0_8_24,2022-07-15T22:08:00.001Z,,,,,,6,3900.042999999947,completion,,,0.545,,,,,,,,,,,,,,,,,0.515,true,551586.200000003,551585.544,547677.12,547677.799999997,547685.501,551593.908,,,
fixation,canvas.Screen,0_8_25_0,2022-07-15T22:08:00.501Z,,,,,,2,683.2989999999991,timeout,,,0.505,,,,,,,,,,,,,,,,,0.495,true,552086.099999994,552085.558,551585.544,551586.400000006,551593.908,552277.207,,,
stimulus,canvas.Screen,0_8_25_1,2022-07-15T22:08:02.405Z,,,,,,2,1712.9930000029271,response,,0.495,0.505,,,https://raw.githubusercontent.com/carero2/loss-perception/main/png/0.495blue1yellowb%3D1w%3D100v%3D19.png,https://raw.githubusercontent.com/carero2/loss-perception/main/png/0.505blue1yellowb%3D1w%3D100v%3D19.png,,,,,,,,,true,f,keypress(f),0.505,0.495,true,553990.799999997,553990.200000003,552085.558,552280.700000003,552277.207,554002.221,,,
choice,canvas.Screen,0_8_25_2,2022-07-15T22:08:03.409Z,,,,0.495,,2,1000.0740000000224,timeout,,,0.505,,0.505,,,1,28,,,,,,,,,,,0.495,true,554994.700000003,554993.961,553993.866,553997.700000003,554002.221,555002.295,128,,
ITI,canvas.Screen,0_8_25_3,2022-07-15T22:08:03.909Z,,,2971,,,2,500.05999999993946,timeout,,,0.505,,,,,,,,,,,,,,,,,0.495,true,555494.5,555493.963,554993.961,554994.900000006,555002.295,555502.355,,,
trial,flow.Sequence,0_8_25,2022-07-15T22:08:03.909Z,,,,,,2,3900.054999999935,completion,,,0.505,,,,,,,,,,,,,,,,,0.495,true,555494.599999994,555493.963,551585.544,551586.400000006,551593.908,555502.355,,,
fixation,canvas.Screen,0_8_26_0,2022-07-15T22:08:04.409Z,,,,,,4,741.5650000000605,timeout,,,0.53,,,,,,,,,,,,,,,,,0.51,false,555994.599999994,555993.977,555493.963,555494.700000003,555502.355,556243.92,,,
stimulus,canvas.Screen,0_8_26_1,2022-07-15T22:08:05.489Z,,,,,,4,829.8799999969779,response,,0.53,0.53,,,https://raw.githubusercontent.com/carero2/loss-perception/main/png/0.53blue1yellowb%3D1w%3D100v%3D44.png,https://raw.githubusercontent.com/carero2/loss-perception/main/png/0.51blue1yellowb%3D1w%3D100v%3D44.png,,,,,,,,,true,j,keypress(j),0.51,0.51,false,557074.299999997,557073.799999997,555993.977,556247.5,556243.92,557085.622,,,
choice,canvas.Screen,0_8_26_2,2022-07-15T22:08:06.492Z,,,,0.51,,4,1000.033000000054,timeout,,,0.53,,0.53,,,-2,26,,,,,,,,,,,0.51,false,558077.799999997,558077.311,557077.185,557081.099999994,557085.622,558085.655,126,,
ITI,canvas.Screen,0_8_26_3,2022-07-15T22:08:06.993Z,,,2810,,,4,500.03999999992084,timeout,,,0.53,,,,,,,,,,,,,,,,,0.51,false,558577.900000006,558577.352,558077.311,558078.099999994,558085.655,558585.695,,,
trial,flow.Sequence,0_8_26,2022-07-15T22:08:06.993Z,,,,,,4,3074.996999999974,completion,,,0.53,,,,,,,,,,,,,,,,,0.51,false,558578,558577.352,555493.963,555494.700000003,555502.355,558585.695,,,
fixation,canvas.Screen,0_8_27_0,2022-07-15T22:08:07.492Z,,,,,,4,683.2550000000047,timeout,,,0.51,,,,,,,,,,,,,,,,,0.49,true,559077.799999997,559077.361,558577.352,558578.099999994,558585.695,559268.95,,,
stimulus,canvas.Screen,0_8_27_1,2022-07-15T22:08:09.096Z,,,,,,4,1411.450000006007,response,,0.49,0.51,,,https://raw.githubusercontent.com/carero2/loss-perception/main/png/0.49blue1yellowb%3D1w%3D100v%3D17.png,https://raw.githubusercontent.com/carero2/loss-perception/main/png/0.51blue1yellowb%3D1w%3D100v%3D17.png,,,,,,,,,true,f,keypress(f),0.51,0.49,true,560681,560680.400000006,559077.361,559272.299999997,559268.95,560694.028,,,
choice,canvas.Screen,0_8_27_2,2022-07-15T22:08:10.101Z,,,,0.49,,4,999.9949999999953,timeout,,,0.51,,0.51,,,2,28,,,,,,,,,,,0.49,true,561686.299999997,561685.761,560685.395,560688.700000003,560694.028,561694.023,128,,
ITI,canvas.Screen,0_8_27_3,2022-07-15T22:08:10.601Z,,,2649,,,4,500.0339999999851,timeout,,,0.51,,,,,,,,,,,,,,,,,0.49,true,562186.5,562185.764,561685.761,561686.400000006,561694.023,562194.057,,,
trial,flow.Sequence,0_8_27,2022-07-15T22:08:10.601Z,,,,,,4,3600.0690000000177,completion,,,0.51,,,,,,,,,,,,,,,,,0.49,true,562186.700000003,562185.764,558577.352,558578.099999994,558585.695,562194.057,,,
fixation,canvas.Screen,0_8_28_0,2022-07-15T22:08:11.101Z,,,,,,6,691.6289999999572,timeout,,,0.485,,,,,,,,,,,,,,,,,0.455,true,562686.200000003,562685.765,562185.764,562186.799999997,562194.057,562885.686,,,
stimulus,canvas.Screen,0_8_28_1,2022-07-15T22:08:12.378Z,,,,,,6,1077.5140000029933,response,,0.455,0.485,,,https://raw.githubusercontent.com/carero2/loss-perception/main/png/0.455blue1yellowb%3D1w%3D100v%3D11.png,https://raw.githubusercontent.com/carero2/loss-perception/main/png/0.485blue1yellowb%3D1w%3D100v%3D11.png,,,,,,,,,true,f,keypress(f),0.485,0.455,true,563963.799999997,563963.200000003,562685.765,562889.5,562885.686,563977.432,,,
choice,canvas.Screen,0_8_28_2,2022-07-15T22:08:13.384Z,,,,0.455,,6,1000.0100000000093,timeout,,,0.485,,0.485,,,9,37,,,,,,,,,,,0.455,true,564969.700000003,564969.164,563968.97,563971.299999997,563977.432,564977.442,137,,
ITI,canvas.Screen,0_8_28_3,2022-07-15T22:08:13.884Z,,,2214,,,6,500.06099999998696,timeout,,,0.485,,,,,,,,,,,,,,,,,0.455,true,565469.799999997,565469.183,564969.164,564969.700000003,564977.442,565477.503,,,
trial,flow.Sequence,0_8_28,2022-07-15T22:08:13.884Z,,,,,,6,3275.125999999931,completion,,,0.485,,,,,,,,,,,,,,,,,0.455,true,565469.900000006,565469.183,562185.764,562186.799999997,562194.057,565477.503,,,
fixation,canvas.Screen,0_8_29_0,2022-07-15T22:08:14.384Z,,,,,,2,741.6959999999963,timeout,,,0.495,,,,,,,,,,,,,,,,,0.485,false,565969.700000003,565969.164,565469.183,565469.900000006,565477.503,566219.199,,,
stimulus,canvas.Screen,0_8_29_1,2022-07-15T22:08:16.520Z,,,,,,2,1885.3009999999776,response,,0.495,0.495,,,https://raw.githubusercontent.com/carero2/loss-perception/main/png/0.495blue1yellowb%3D1w%3D100v%3D47.png,https://raw.githubusercontent.com/carero2/loss-perception/main/png/0.485blue1yellowb%3D1w%3D100v%3D47.png,,,,,,,,,true,j,keypress(j),0.485,0.485,false,568105.400000006,568104.5,565969.164,566225.5,566219.199,568119.319,,,
choice,canvas.Screen,0_8_29_2,2022-07-15T22:08:17.526Z,,,,0.485,,2,1000.0760000000009,timeout,,,0.495,,0.495,,,3,40,,,,,,,,,,,0.485,false,569111.5,569110.884,568110.491,568112.200000003,568119.319,569119.395,140,,
ITI,canvas.Screen,0_8_29_3,2022-07-15T22:08:18.026Z,,,2464,,,2,499.8279999999795,timeout,,,0.495,,,,,,,,,,,,,,,,,0.485,false,569611.5,569610.906,569110.884,569111.599999994,569119.395,569619.223,,,
trial,flow.Sequence,0_8_29,2022-07-15T22:08:18.026Z,,,,,,2,4133.402999999933,completion,,,0.495,,,,,,,,,,,,,,,,,0.485,false,569611.599999994,569610.906,565469.183,565469.900000006,565477.503,569619.223,,,
fixation,canvas.Screen,0_8_30_0,2022-07-15T22:08:18.526Z,,,,,,4,699.9429999999702,timeout,,,0.49,,,,,,,,,,,,,,,,,0.47,false,570111.400000006,570110.899,569610.906,569611.599999994,569619.223,570319.166,,,
stimulus,canvas.Screen,0_8_30_1,2022-07-15T22:08:20.043Z,,,,,,4,1308.2340000059921,response,,0.49,0.49,,,https://raw.githubusercontent.com/carero2/loss-perception/main/png/0.49blue1yellowb%3D1w%3D100v%3D54.png,https://raw.githubusercontent.com/carero2/loss-perception/main/png/0.47blue1yellowb%3D1w%3D100v%3D54.png,,,,,,,,,true,j,keypress(j),0.47,0.47,false,571628.200000003,571627.400000006,570110.899,570323.5,570319.166,571644.196,,,
choice,canvas.Screen,0_8_30_2,2022-07-15T22:08:21.051Z,,,,0.47,,4,1000.1589999999851,timeout,,,0.49,,0.49,,,6,46,,,,,,,,,,,0.47,false,572636.400000006,572635.957,571635.892,571636.799999997,571644.196,572644.355,146,,
ITI,canvas.Screen,0_8_30_3,2022-07-15T22:08:21.551Z,,,2291,,,4,499.9109999999637,timeout,,,0.49,,,,,,,,,,,,,,,,,0.47,false,573136.599999994,573135.958,572635.957,572636.5,572644.355,573144.266,,,
trial,flow.Sequence,0_8_30,2022-07-15T22:08:21.551Z,,,,,,4,3516.734999999986,completion,,,0.49,,,,,,,,,,,,,,,,,0.47,false,573136.700000003,573135.958,569610.906,569611.599999994,569619.223,573144.266,,,
fixation,canvas.Screen,0_8_31_0,2022-07-15T22:08:22.051Z,,,,,,4,683.2920000000158,timeout,,,0.53,,,,,,,,,,,,,,,,,0.51,false,573636.5,573635.974,573135.958,573136.799999997,573144.266,573827.558,,,
stimulus,canvas.Screen,0_8_31_1,2022-07-15T22:08:23.603Z,,,,,,4,1359.8420000059996,response,,0.53,0.53,,,https://raw.githubusercontent.com/carero2/loss-perception/main/png/0.53blue1yellowb%3D1w%3D100v%3D21.png,https://raw.githubusercontent.com/carero2/loss-perception/main/png/0.51blue1yellowb%3D1w%3D100v%3D21.png,,,,,,,,,true,j,keypress(j),0.51,0.51,false,575188.099999994,575187.400000006,573635.974,573831.200000003,573827.558,575202.604,,,
choice,canvas.Screen,0_8_31_2,2022-07-15T22:08:24.610Z,,,,0.51,,4,1000.2379999998957,timeout,,,0.53,,0.53,,,-2,44,,,,,,,,,,,0.51,false,576194.900000006,576194.367,575194.014,575197.299999997,575202.604,576202.842,144,,
ITI,canvas.Screen,0_8_31_3,2022-07-15T22:08:25.110Z,,,2964,,,4,499.83500000007916,timeout,,,0.53,,,,,,,,,,,,,,,,,0.51,false,576694.900000006,576694.379,576194.367,576195,576202.842,576702.677,,,
trial,flow.Sequence,0_8_31,2022-07-15T22:08:25.110Z,,,,,,4,3550.113000000012,completion,,,0.53,,,,,,,,,,,,,,,,,0.51,false,576695.099999994,576694.379,573135.958,573136.799999997,573144.266,576702.677,,,
fixation,canvas.Screen,0_8_32_0,2022-07-15T22:08:25.610Z,,,,,,2,699.9989999999525,timeout,,,0.505,,,,,,,,,,,,,,,,,0.495,false,577195,577194.421,576694.379,576695.200000003,576702.677,577402.676,,,
stimulus,canvas.Screen,0_8_32_1,2022-07-15T22:08:26.545Z,,,,,,2,726.7240000059828,response,,0.505,0.505,,,https://raw.githubusercontent.com/carero2/loss-perception/main/png/0.505blue1yellowb%3D1w%3D100v%3D24.png,https://raw.githubusercontent.com/carero2/loss-perception/main/png/0.495blue1yellowb%3D1w%3D100v%3D24.png,,,,,,,,,true,j,keypress(j),0.495,0.495,false,578130,578129.400000006,577194.421,577406.799999997,577402.676,578144.366,,,
choice,canvas.Screen,0_8_32_2,2022-07-15T22:08:27.553Z,,,,0.495,,2,1000.0169999999925,timeout,,,0.505,,0.505,,,1,45,,,,,,,,,,,0.495,false,579138.200000003,579136,578136.082,578136.900000006,578144.366,579144.383,145,,
ITI,canvas.Screen,0_8_32_3,2022-07-15T22:08:28.051Z,,,2486,,,2,500.0999999999767,timeout,,,0.505,,,,,,,,,,,,,,,,,0.495,false,579636.700000003,579636.086,579136,579138.299999997,579144.383,579644.483,,,
trial,flow.Sequence,0_8_32,2022-07-15T22:08:28.051Z,,,,,,2,2933.408999999985,completion,,,0.505,,,,,,,,,,,,,,,,,0.495,false,579636.799999997,579636.086,576694.379,576695.099999994,576702.677,579644.483,,,
fixation,canvas.Screen,0_8_33_0,2022-07-15T22:08:28.551Z,,,,,,2,683.2010000000009,timeout,,,0.515,,,,,,,,,,,,,,,,,0.505,true,580136.799999997,580136.096,579636.086,579636.799999997,579644.483,580327.684,,,
stimulus,canvas.Screen,0_8_33_1,2022-07-15T22:08:30.323Z,,,,,,2,1579.9159999940312,response,,0.505,0.515,,,https://raw.githubusercontent.com/carero2/loss-perception/main/png/0.505blue1yellowb%3D1w%3D100v%3D63.png,https://raw.githubusercontent.com/carero2/loss-perception/main/png/0.515blue1yellowb%3D1w%3D100v%3D63.png,,,,,,,,,true,f,keypress(f),0.515,0.505,true,581908.099999994,581907.599999994,580136.096,580331.599999994,580327.684,581931.493,,,
choice,canvas.Screen,0_8_33_2,2022-07-15T22:08:31.335Z,,,,0.505,,2,996.3029999999562,timeout,,,0.515,,0.515,,,-1,44,,,,,,,,,,,0.505,true,582920,582919.465,581910.849,581918.700000003,581931.493,582927.796,144,,
ITI,canvas.Screen,0_8_33_3,2022-07-15T22:08:31.835Z,,,2405,,,2,500.0010000000475,timeout,,,0.515,,,,,,,,,,,,,,,,,0.505,true,583420,583419.476,582919.465,582920.099999994,582927.796,583427.797,,,
trial,flow.Sequence,0_8_33,2022-07-15T22:08:31.835Z,,,,,,2,3774.9930000000168,completion,,,0.515,,,,,,,,,,,,,,,,,0.505,true,583420.200000003,583419.476,579636.086,579636.799999997,579644.483,583427.797,,,
fixation,canvas.Screen,0_8_34_0,2022-07-15T22:08:32.335Z,,,,,,6,675.0039999999572,timeout,,,0.545,,,,,,,,,,,,,,,,,0.515,false,583920.099999994,583919.495,583419.476,583420.200000003,583427.797,584102.801,,,
stimulus,canvas.Screen,0_8_34_1,2022-07-15T22:08:33.256Z,,,,,,6,733.9989999970421,response,,0.545,0.545,,,https://raw.githubusercontent.com/carero2/loss-perception/main/png/0.545blue1yellowb%3D1w%3D100v%3D58.png,https://raw.githubusercontent.com/carero2/loss-perception/main/png/0.515blue1yellowb%3D1w%3D100v%3D58.png,,,,,,,,,true,j,keypress(j),0.515,0.515,false,584841.700000003,584836.799999997,583919.495,584106.200000003,584102.801,584852.759,,,
choice,canvas.Screen,0_8_34_2,2022-07-15T22:08:34.260Z,,,,0.515,,6,1000.1570000000065,timeout,,,0.545,,0.545,,,-3,41,,,,,,,,,,,0.515,false,585845.200000003,585844.559,584844.448,584848.700000003,584852.759,585852.916,141,,
ITI,canvas.Screen,0_8_34_3,2022-07-15T22:08:34.760Z,,,2819,,,6,499.9749999999767,timeout,,,0.545,,,,,,,,,,,,,,,,,0.515,false,586345.400000006,586344.588,585844.559,585845.200000003,585852.916,586352.891,,,
trial,flow.Sequence,0_8_34,2022-07-15T22:08:34.760Z,,,,,,6,2916.7909999999683,completion,,,0.545,,,,,,,,,,,,,,,,,0.515,false,586345.5,586344.588,583419.476,583420.200000003,583427.797,586352.891,,,
fixation,canvas.Screen,0_8_35_0,2022-07-15T22:08:35.260Z,,,,,,6,674.9160000000848,timeout,,,0.515,,,,,,,,,,,,,,,,,0.485,false,586845,586844.586,586344.588,586345.599999994,586352.891,587027.807,,,
stimulus,canvas.Screen,0_8_35_1,2022-07-15T22:08:36.114Z,,,,,,6,669.6929999999702,response,,0.515,0.515,,,https://raw.githubusercontent.com/carero2/loss-perception/main/png/0.515blue1yellowb%3D1w%3D100v%3D89.png,https://raw.githubusercontent.com/carero2/loss-perception/main/png/0.485blue1yellowb%3D1w%3D100v%3D89.png,,,,,,,,,true,j,keypress(j),0.485,0.485,false,587699,587697.5,586844.586,587032.5,587027.807,587711.176,,,
choice,canvas.Screen,0_8_35_2,2022-07-15T22:08:37.118Z,,,,0.485,,6,1000.1049999999814,timeout,,,0.515,,0.515,,,3,44,,,,,,,,,,,0.485,false,588703.5,588702.976,587702.717,587705.799999997,587711.176,588711.281,144,,
ITI,canvas.Screen,0_8_35_3,2022-07-15T22:08:37.618Z,,,2708,,,6,500.01500000001397,timeout,,,0.515,,,,,,,,,,,,,,,,,0.485,false,589203.5,589202.948,588702.976,588703.5,588711.281,589211.296,,,
trial,flow.Sequence,0_8_35,2022-07-15T22:08:37.618Z,,,,,,6,2850.05700000003,completion,,,0.515,,,,,,,,,,,,,,,,,0.485,false,589203.599999994,589202.948,586344.588,586345.5,586352.891,589211.296,,,
fixation,canvas.Screen,0_8_36_0,2022-07-15T22:08:38.118Z,,,,,,2,674.9130000000587,timeout,,,0.515,,,,,,,,,,,,,,,,,0.505,true,589703.5,589702.998,589202.948,589203.599999994,589211.296,589886.209,,,
stimulus,canvas.Screen,0_8_36_1,2022-07-15T22:08:39.014Z,,,,,,2,712.4910000029486,response,,0.505,0.515,,,https://raw.githubusercontent.com/carero2/loss-perception/main/png/0.505blue1yellowb%3D1w%3D100v%3D88.png,https://raw.githubusercontent.com/carero2/loss-perception/main/png/0.515blue1yellowb%3D1w%3D100v%3D88.png,,,,,,,,,true,j,keypress(j),0.515,0.505,true,590599.400000006,590598.700000003,589702.998,589889.5,589886.209,590611.218,,,
choice,canvas.Screen,0_8_36_2,2022-07-15T22:08:40.018Z,,,,0.515,,2,1000.0729999999749,timeout,,,0.515,,0.505,,,-3,41,,,,,,,,,,,0.505,true,591603.700000003,591603.01,590602.897,590607.700000003,590611.218,591611.291,141,,
ITI,canvas.Screen,0_8_36_3,2022-07-15T22:08:40.518Z,,,2762,,,2,500.0709999999963,timeout,,,0.515,,,,,,,,,,,,,,,,,0.505,true,592103.599999994,592102.984,591603.01,591603.700000003,591611.291,592111.362,,,
trial,flow.Sequence,0_8_36,2022-07-15T22:08:40.518Z,,,,,,2,2891.688000000082,completion,,,0.515,,,,,,,,,,,,,,,,,0.505,true,592103.700000003,592102.984,589202.948,589203.599999994,589211.296,592111.362,,,
fixation,canvas.Screen,0_8_37_0,2022-07-15T22:08:41.018Z,,,,,,6,683.2380000000121,timeout,,,0.515,,,,,,,,,,,,,,,,,0.485,false,592603.599999994,592603.03,592102.984,592103.700000003,592111.362,592794.6,,,
stimulus,canvas.Screen,0_8_37_1,2022-07-15T22:08:41.911Z,,,,,,6,701.199999997043,response,,0.515,0.515,,,https://raw.githubusercontent.com/carero2/loss-perception/main/png/0.515blue1yellowb%3D1w%3D100v%3D10.png,https://raw.githubusercontent.com/carero2/loss-perception/main/png/0.485blue1yellowb%3D1w%3D100v%3D10.png,,,,,,,,,true,j,keypress(j),0.485,0.485,false,593496.599999994,593495.799999997,592603.03,592800.599999994,592794.6,593511.283,,,
choice,canvas.Screen,0_8_37_2,2022-07-15T22:08:42.918Z,,,,0.485,,6,1000.122999999905,timeout,,,0.515,,0.515,,,3,44,,,,,,,,,,,0.485,false,594503.700000003,594503.065,593502.88,593506,593511.283,594511.406,144,,
ITI,canvas.Screen,0_8_37_3,2022-07-15T22:08:43.418Z,,,2503,,,6,500.00500000000466,timeout,,,0.515,,,,,,,,,,,,,,,,,0.485,false,595003.599999994,595003.077,594503.065,594503.799999997,594511.406,595011.411,,,
trial,flow.Sequence,0_8_37,2022-07-15T22:08:43.418Z,,,,,,6,2891.715000000084,completion,,,0.515,,,,,,,,,,,,,,,,,0.485,false,595003.700000003,595003.077,592102.984,592103.700000003,592111.362,595011.411,,,
fixation,canvas.Screen,0_8_38_0,2022-07-15T22:08:43.918Z,,,,,,4,683.2460000000428,timeout,,,0.53,,,,,,,,,,,,,,,,,0.51,false,595503.599999994,595503.121,595003.077,595003.700000003,595011.411,595694.657,,,
stimulus,canvas.Screen,0_8_38_1,2022-07-15T22:08:44.909Z,,,,,,4,793.942999994033,response,,0.53,0.53,,,https://raw.githubusercontent.com/carero2/loss-perception/main/png/0.53blue1yellowb%3D1w%3D100v%3D13.png,https://raw.githubusercontent.com/carero2/loss-perception/main/png/0.51blue1yellowb%3D1w%3D100v%3D13.png,,,,,,,,,true,j,keypress(j),0.51,0.51,false,596494.099999994,596488.599999994,595503.121,595698.700000003,595694.657,596511.412,,,
choice,canvas.Screen,0_8_38_2,2022-07-15T22:08:45.918Z,,,,0.51,,4,1000.0489999999991,timeout,,,0.53,,0.53,,,-2,42,,,,,,,,,,,0.51,false,597503.700000003,597503.139,596502.863,596503.400000006,596511.412,597511.461,142,,
ITI,canvas.Screen,0_8_38_3,2022-07-15T22:08:46.418Z,,,2625,,,4,499.91500000003725,timeout,,,0.53,,,,,,,,,,,,,,,,,0.51,false,598003.599999994,598003.13,597503.139,597503.799999997,597511.461,598011.376,,,
trial,flow.Sequence,0_8_38,2022-07-15T22:08:46.418Z,,,,,,4,2991.719000000041,completion,,,0.53,,,,,,,,,,,,,,,,,0.51,false,598003.700000003,598003.13,595003.077,595003.700000003,595011.411,598011.376,,,
fixation,canvas.Screen,0_8_39_0,2022-07-15T22:08:46.918Z,,,,,,6,741.6749999999302,timeout,,,0.485,,,,,,,,,,,,,,,,,0.455,false,598503.799999997,598503.152,598003.13,598003.799999997,598011.376,598753.051,,,
stimulus,canvas.Screen,0_8_39_1,2022-07-15T22:08:47.838Z,,,,,,6,669.3490000059828,response,,0.485,0.485,,,https://raw.githubusercontent.com/carero2/loss-perception/main/png/0.485blue1yellowb%3D1w%3D100v%3D50.png,https://raw.githubusercontent.com/carero2/loss-perception/main/png/0.455blue1yellowb%3D1w%3D100v%3D50.png,,,,,,,,,true,j,keypress(j),0.455,0.455,false,599423.799999997,599422.400000006,598503.152,598757.200000003,598753.051,599436.481,,,
choice,canvas.Screen,0_8_39_2,2022-07-15T22:08:48.843Z,,,,0.455,,6,999.9909999999218,timeout,,,0.485,,0.485,,,9,51,,,,,,,,,,,0.455,false,600428.599999994,600428.181,599427.947,599430.400000006,599436.481,600436.472,151,,
ITI,canvas.Screen,0_8_39_3,2022-07-15T22:08:49.344Z,,,2456,,,6,500.0890000000363,timeout,,,0.485,,,,,,,,,,,,,,,,,0.455,false,600928.900000006,600928.215,600428.181,600428.700000003,600436.472,600936.561,,,
trial,flow.Sequence,0_8_39,2022-07-15T22:08:49.344Z,,,,,,6,2916.83899999992,completion,,,0.485,,,,,,,,,,,,,,,,,0.455,false,600929,600928.215,598003.13,598003.799999997,598011.376,600936.561,,,
fixation,canvas.Screen,0_8_40_0,2022-07-15T22:08:49.843Z,,,,,,2,524.875,timeout,,,0.495,,,,,,,,,,,,,,,,,0.485,true,601428.900000006,601428.207,600928.215,600929.200000003,600936.561,601461.436,,,
stimulus,canvas.Screen,0_8_40_1,2022-07-15T22:08:50.632Z,,,,,,2,755.064000000013,response,,0.485,0.495,,,https://raw.githubusercontent.com/carero2/loss-perception/main/png/0.485blue1yellowb%3D1w%3D100v%3D50.png,https://raw.githubusercontent.com/carero2/loss-perception/main/png/0.495blue1yellowb%3D1w%3D100v%3D50.png,,,,,,,,,true,j,keypress(j),0.495,0.485,true,602217.400000006,602216.5,601428.207,601464.799999997,601461.436,602228.19,,,
choice,canvas.Screen,0_8_40_2,2022-07-15T22:08:51.635Z,,,,0.495,,2,1000.1590000001015,timeout,,,0.495,,0.485,,,1,52,,,,,,,,,,,0.485,true,603220.400000006,603219.888,602219.746,602225.799999997,602228.19,603228.349,152,,
ITI,canvas.Screen,0_8_40_3,2022-07-15T22:08:52.135Z,,,2287,,,2,499.80199999990873,timeout,,,0.495,,,,,,,,,,,,,,,,,0.485,true,603720.299999997,603719.812,603219.888,603220.599999994,603228.349,603728.151,,,
trial,flow.Sequence,0_8_40,2022-07-15T22:08:52.135Z,,,,,,2,2783.2510000000475,completion,,,0.495,,,,,,,,,,,,,,,,,0.485,true,603720.599999994,603719.812,600928.215,600929.099999994,600936.561,603728.151,,,
fixation,canvas.Screen,0_8_41_0,2022-07-15T22:08:52.635Z,,,,,,4,966.6810000000987,timeout,,,0.51,,,,,,,,,,,,,,,,,0.49,false,604220.5,604219.931,603719.812,603720.799999997,603728.151,604694.832,,,
stimulus,canvas.Screen,0_8_41_1,2022-07-15T22:08:54.041Z,,,,,,4,928.4679999969667,response,,0.51,0.51,,,https://raw.githubusercontent.com/carero2/loss-perception/main/png/0.51blue1yellowb%3D1w%3D100v%3D3.png,https://raw.githubusercontent.com/carero2/loss-perception/main/png/0.49blue1yellowb%3D1w%3D100v%3D3.png,,,,,,,,,true,j,keypress(j),0.49,0.49,false,605626.099999994,605623.299999997,604219.931,604698.299999997,604694.832,605644.892,,,
choice,canvas.Screen,0_8_41_2,2022-07-15T22:08:55.052Z,,,,0.49,,4,1000.1049999999814,timeout,,,0.51,,0.51,,,2,54,,,,,,,,,,,0.49,false,606637.200000003,606636.627,605636.355,605637,605644.892,606644.997,154,,
ITI,canvas.Screen,0_8_41_3,2022-07-15T22:08:55.552Z,,,2360,,,4,499.89100000006147,timeout,,,0.51,,,,,,,,,,,,,,,,,0.49,false,607137.099999994,607136.617,606636.627,606637.299999997,606644.997,607144.888,,,
trial,flow.Sequence,0_8_41,2022-07-15T22:08:55.552Z,,,,,,4,3408.466000000015,completion,,,0.51,,,,,,,,,,,,,,,,,0.49,false,607137.200000003,607136.617,603719.812,603720.700000003,603728.151,607144.888,,,
fixation,canvas.Screen,0_8_42_0,2022-07-15T22:08:56.052Z,,,,,,6,675.0029999999097,timeout,,,0.545,,,,,,,,,,,,,,,,,0.515,false,607637.200000003,607636.666,607136.617,607137.200000003,607144.888,607819.891,,,
stimulus,canvas.Screen,0_8_42_1,2022-07-15T22:08:57.862Z,,,,,,6,1626.7089999940945,response,,0.545,0.545,,,https://raw.githubusercontent.com/carero2/loss-perception/main/png/0.545blue1yellowb%3D1w%3D100v%3D20.png,https://raw.githubusercontent.com/carero2/loss-perception/main/png/0.515blue1yellowb%3D1w%3D100v%3D20.png,,,,,,,,,true,j,keypress(j),0.515,0.515,false,609447.200000003,609446.599999994,607636.666,607825.099999994,607819.891,609461.674,,,
choice,canvas.Screen,0_8_42_2,2022-07-15T22:08:58.868Z,,,,0.515,,6,1000.0779999999795,timeout,,,0.545,,0.545,,,-3,51,,,,,,,,,,,0.515,false,610453.799999997,610453.398,609453.027,609454.200000003,609461.674,610461.752,151,,
ITI,canvas.Screen,0_8_42_3,2022-07-15T22:08:59.369Z,,,2188,,,6,500.0600000000559,timeout,,,0.545,,,,,,,,,,,,,,,,,0.515,false,610953.900000006,610953.393,610453.398,610453.900000006,610461.752,610961.812,,,
trial,flow.Sequence,0_8_42,2022-07-15T22:08:59.369Z,,,,,,6,3808.5050000000047,completion,,,0.545,,,,,,,,,,,,,,,,,0.515,false,610954.099999994,610953.393,607136.617,607137.200000003,607144.888,610961.812,,,
fixation,canvas.Screen,0_8_43_0,2022-07-15T22:08:59.869Z,,,,,,4,683.1579999999376,timeout,,,0.49,,,,,,,,,,,,,,,,,0.47,false,611454,611453.402,610953.393,610954.099999994,610961.812,611644.97,,,
stimulus,canvas.Screen,0_8_43_1,2022-07-15T22:09:00.796Z,,,,,,4,735.9300000059884,response,,0.49,0.49,,,https://raw.githubusercontent.com/carero2/loss-perception/main/png/0.49blue1yellowb%3D1w%3D100v%3D66.png,https://raw.githubusercontent.com/carero2/loss-perception/main/png/0.47blue1yellowb%3D1w%3D100v%3D66.png,,,,,,,,,true,j,keypress(j),0.47,0.47,false,612381.599999994,612380.900000006,611453.402,611648.599999994,611644.97,612394.975,,,
choice,canvas.Screen,0_8_43_2,2022-07-15T22:09:01.802Z,,,,0.47,,4,1000.2480000000214,timeout,,,0.49,,0.49,,,6,57,,,,,,,,,,,0.47,false,613387.299999997,613386.765,612386.436,612391.5,612394.975,613395.223,157,,
ITI,canvas.Screen,0_8_43_3,2022-07-15T22:09:02.302Z,,,2014,,,4,499.8320000000531,timeout,,,0.49,,,,,,,,,,,,,,,,,0.47,false,613887.099999994,613886.678,613386.765,613387.400000006,613395.223,613895.055,,,
trial,flow.Sequence,0_8_43,2022-07-15T22:09:02.302Z,,,,,,4,2924.8659999999218,completion,,,0.49,,,,,,,,,,,,,,,,,0.47,false,613887.200000003,613886.678,610953.393,610954.099999994,610961.812,613895.055,,,
fixation,canvas.Screen,0_8_44_0,2022-07-15T22:09:02.802Z,,,,,,2,675.0259999999544,timeout,,,0.505,,,,,,,,,,,,,,,,,0.495,true,614387.299999997,614386.768,613886.678,613887.200000003,613895.055,614570.081,,,
stimulus,canvas.Screen,0_8_44_1,2022-07-15T22:09:05.777Z,,,,,,2,2790.819000005955,response,,0.495,0.505,,,https://raw.githubusercontent.com/carero2/loss-perception/main/png/0.495blue1yellowb%3D1w%3D100v%3D50.png,https://raw.githubusercontent.com/carero2/loss-perception/main/png/0.505blue1yellowb%3D1w%3D100v%3D50.png,,,,,,,,,true,j,keypress(j),0.505,0.495,true,617362.5,617360.900000006,614386.768,614573.5,614570.081,617386.849,,,
choice,canvas.Screen,0_8_44_2,2022-07-15T22:09:06.794Z,,,,0.505,,2,1000.0059999999357,timeout,,,0.505,,0.495,,,-1,56,,,,,,,,,,,0.495,true,618379,618378.517,617385.04,617369.400000006,617386.849,618386.855,156,,
ITI,canvas.Screen,0_8_44_3,2022-07-15T22:09:07.294Z,,,2549,,,2,499.9910000000382,timeout,,,0.505,,,,,,,,,,,,,,,,,0.495,true,618879.099999994,618878.53,618378.517,618379.099999994,618386.855,618886.846,,,
trial,flow.Sequence,0_8_44,2022-07-15T22:09:07.294Z,,,,,,2,4983.474999999977,completion,,,0.505,,,,,,,,,,,,,,,,,0.495,true,618879.299999997,618878.53,613886.678,613887.200000003,613895.055,618886.846,,,
1st block,flow.Loop,0_8,2022-07-15T22:09:07.294Z,,,,,,,156353.09100000001,completion,,,,,,,,,,,,,,,,,,,,,,618879.299999997,618878.53,462518.859,462522.59999999404,462525.439,618886.846,,,
show amount,html.Screen,0_9,2022-07-15T22:09:20.477Z,,,,,,,13173.65399999998,response,,,,,,,,,,,,,,,,,Continue,click #Continue,,,,632062,632060.5,618878.53,618879.799999997,618886.846,632062.148,,,
second block,canvas.Screen,0_10,2022-07-15T22:09:24.422Z,,,,,,,3944.7520000059158,response,,,,,,,,,,,,,,,,,space,keypress(Space),,,,636007.5,636006.900000006,632053.757,632062.099999994,632062.148,636012.176,,,
fixation,canvas.Screen,0_11_0_0,2022-07-15T22:09:24.919Z,,,,,,6,666.6040000000503,timeout,,,0.485,,,,,,,,,,,,,,,,,0.455,true,636504.299999997,636503.901,636003.652,636007.599999994,636012.176,636678.78,,,
stimulus,canvas.Screen,0_11_0_1,2022-07-15T22:09:26.615Z,,,,,,6,1520.3199999940116,response,,0.455,0.485,,,https://raw.githubusercontent.com/carero2/loss-perception/main/png/0.455blue1yellowb%3D1w%3D100v%3D98.png,https://raw.githubusercontent.com/carero2/loss-perception/main/png/0.485blue1yellowb%3D1w%3D100v%3D98.png,,,,,,,,,true,f,keypress(f),0.485,0.455,true,638199.700000003,638199.099999994,636503.901,636682.299999997,636678.78,638212.258,,,
choice,canvas.Screen,0_11_0_2,2022-07-15T22:09:27.619Z,,,,0.455,,6,999.9830000000075,timeout,,,0.485,,0.485,,,9,,9,,,,,,,,,,0.455,true,639204.400000006,639203.927,638203.763,638207,638212.258,639212.241,165,,
ITI,canvas.Screen,0_11_0_3,2022-07-15T22:09:28.119Z,,,2999,,,6,499.9869999999646,timeout,,,0.485,,,,,,,,,,,,,,,,,0.455,true,639704.299999997,639703.931,639203.927,639204.599999994,639212.241,639712.228,,,
trial,flow.Sequence,0_11_0,2022-07-15T22:09:28.119Z,,,,,,6,3691.7550000000047,completion,,,0.485,,,,,,,,,,,,,,,,,0.455,true,639704.599999994,639703.931,636003.652,636007.599999994,636012.176,639712.228,,,
fixation,canvas.Screen,0_11_1_0,2022-07-15T22:09:28.619Z,,,,,,4,758.2939999999944,timeout,,,0.53,,,,,,,,,,,,,,,,,0.51,true,640204.299999997,640203.945,639703.931,639704.700000003,639712.228,640470.522,,,
stimulus,canvas.Screen,0_11_1_1,2022-07-15T22:09:31.052Z,,,,,,4,2165.178000002983,response,,0.51,0.53,,,https://raw.githubusercontent.com/carero2/loss-perception/main/png/0.51blue1yellowb%3D1w%3D100v%3D43.png,https://raw.githubusercontent.com/carero2/loss-perception/main/png/0.53blue1yellowb%3D1w%3D100v%3D43.png,,,,,,,,,true,f,keypress(f),0.53,0.51,true,642637.200000003,642635.700000003,640203.945,640474.200000003,640470.522,642666.481,,,
choice,canvas.Screen,0_11_1_2,2022-07-15T22:09:32.070Z,,,,0.51,,4,995.9089999999851,timeout,,,0.53,,0.53,,,-2,,7,,,,,,,,,,0.51,true,643654.700000003,643654.083,642636.877,642644.5,642666.481,643662.39,163,,
ITI,canvas.Screen,0_11_1_3,2022-07-15T22:09:32.570Z,,,2170,,,4,500.0109999999404,timeout,,,0.53,,,,,,,,,,,,,,,,,0.51,true,644154.599999994,644154.059,643654.083,643654.799999997,643662.39,644162.401,,,
trial,flow.Sequence,0_11_1,2022-07-15T22:09:32.570Z,,,,,,4,4441.831000000006,completion,,,0.53,,,,,,,,,,,,,,,,,0.51,true,644154.700000003,644154.059,639703.931,639704.700000003,639712.228,644162.401,,,
fixation,canvas.Screen,0_11_2_0,2022-07-15T22:09:33.069Z,,,,,,6,716.609000000055,timeout,,,0.515,,,,,,,,,,,,,,,,,0.485,false,644654.599999994,644654.045,644154.059,644154.900000006,644162.401,644879.01,,,
stimulus,canvas.Screen,0_11_2_1,2022-07-15T22:09:34.229Z,,,,,,6,934.6900000029709,response,,0.515,0.515,,,https://raw.githubusercontent.com/carero2/loss-perception/main/png/0.515blue1yellowb%3D1w%3D100v%3D36.png,https://raw.githubusercontent.com/carero2/loss-perception/main/png/0.485blue1yellowb%3D1w%3D100v%3D36.png,,,,,,,,,true,j,keypress(j),0.485,0.485,false,645814.299999997,645813.700000003,644654.045,644882.5,644879.01,645829.121,,,
choice,canvas.Screen,0_11_2_2,2022-07-15T22:09:35.236Z,,,,0.485,,6,999.997999999905,timeout,,,0.515,,0.515,,,3,,10,,,,,,,,,,0.485,false,646821.299999997,646820.769,645820.611,645821.599999994,645829.121,646829.119,166,,
ITI,canvas.Screen,0_11_2_3,2022-07-15T22:09:35.736Z,,,2801,,,6,499.9560000000056,timeout,,,0.515,,,,,,,,,,,,,,,,,0.485,false,647321.200000003,647320.73,646820.769,646821.400000006,646829.119,647329.075,,,
trial,flow.Sequence,0_11_2,2022-07-15T22:09:35.736Z,,,,,,6,3158.329000000027,completion,,,0.515,,,,,,,,,,,,,,,,,0.485,false,647321.299999997,647320.73,644154.059,644154.799999997,644162.401,647329.075,,,
fixation,canvas.Screen,0_11_3_0,2022-07-15T22:09:36.236Z,,,,,,6,533.2690000000875,timeout,,,0.545,,,,,,,,,,,,,,,,,0.515,false,647821.299999997,647820.719,647320.73,647321.299999997,647329.075,647862.344,,,
stimulus,canvas.Screen,0_11_3_1,2022-07-15T22:09:37.641Z,,,,,,6,1362.9559999969788,response,,0.545,0.545,,,https://raw.githubusercontent.com/carero2/loss-perception/main/png/0.545blue1yellowb%3D1w%3D100v%3D9.png,https://raw.githubusercontent.com/carero2/loss-perception/main/png/0.515blue1yellowb%3D1w%3D100v%3D9.png,,,,,,,,,true,j,keypress(j),0.515,0.515,false,649226,649225.299999997,647820.719,647866.200000003,647862.344,649237.37,,,
choice,canvas.Screen,0_11_3_2,2022-07-15T22:09:38.645Z,,,,0.515,,6,1000.1999999999534,timeout,,,0.545,,0.545,,,-3,,7,,,,,,,,,,0.515,false,650229.599999994,650229.198,649229.023,649233.200000003,649237.37,650237.57,163,,
ITI,canvas.Screen,0_11_3_3,2022-07-15T22:09:39.145Z,,,2284,,,6,499.99700000009034,timeout,,,0.545,,,,,,,,,,,,,,,,,0.515,false,650729.700000003,650729.163,650229.198,650229.700000003,650237.57,650737.567,,,
trial,flow.Sequence,0_11_3,2022-07-15T22:09:39.145Z,,,,,,6,3400.087999999989,completion,,,0.545,,,,,,,,,,,,,,,,,0.515,false,650729.799999997,650729.163,647320.73,647321.299999997,647329.075,650737.567,,,
fixation,canvas.Screen,0_11_4_0,2022-07-15T22:09:39.645Z,,,,,,2,674.8459999999031,timeout,,,0.505,,,,,,,,,,,,,,,,,0.495,true,651229.599999994,651229.13,650729.163,650729.900000006,650737.567,651412.413,,,
