sender,sender_type,sender_id,timestamp,meta,,ITI_value,choice,consent,diff_net_value,duration,ended_on,gain_color,left,left_side,loss_color,not_choice,picture_left,picture_right,points,points1Block,points2Block,points3Block,points4Block,points5Block,points6Block,pointsBlock,responded,response,response_action,right,right_side,switch_sides,time_commit,time_end,time_render,time_run,time_show,time_switch,totalPoints,totalPoints_practice,url
welcome,html.Screen,0_0,2022-07-15T14:20:50.458Z,"{""labjs_version"":""20.2.4"",""labjs_build"":{""flavor"":""production"",""commit"":""f5b4a49f956347addd546a832a3327688c2c0fef""},""location"":""https://run.pavlovia.org/Rey/loss-perception/"",""userAgent"":""Mozilla/5.0 (Windows NT 10.0; Win64; x64) AppleWebKit/537.36 (KHTML, like Gecko) Chrome/103.0.0.0 Safari/537.36"",""platform"":""Win32"",""language"":""en-US"",""locale"":""en-US"",""timeZone"":""Europe/London"",""timezoneOffset"":-60,""screen_width"":1536,""screen_height"":864,""scroll_width"":1536,""scroll_height"":698,""window_innerWidth"":1536,""window_innerHeight"":746,""devicePixelRatio"":1.25}",,,,,,2810.0679999998138,response,blue,,,yellow,,,,,0,0,0,0,0,0,0,,Continue,click #Continue,,,,14687.700000000186,14684.299999999814,11858.391,11876.299999999814,11874.232,14688.166,100,100,{}
consent,html.Form,0_1,2022-07-15T14:21:24.708Z,,,,,true,,34248.43400000056,form submission,,,,,,,,,,,,,,,,,,,,,,48937.10000000056,48936.60000000056,14671.654,14688.100000000559,14688.166,48939.495,,,
ProlificID,html.Form,0_2,2022-07-15T14:21:28.872Z,,,,,,,4161.804999999811,form submission,,,,,,,,,,,,,,,,,,,,,,53101.60000000056,53101.299999999814,48922.894,48937.299999999814,48939.495,53102.27,,,
instructions,html.Form,0_3,2022-07-15T14:22:39.885Z,,,,,,,71010.83000000057,form submission,,,,,,,,,,,,,,,,,,,,,,124113.70000000019,124113.10000000056,53085.884,53101.90000000037,53102.27,124135.879,,,
Practice,canvas.Screen,0_4,2022-07-15T14:22:49.260Z,,,,,,,9347.321000000185,response,,,,,,,,,,,,,,,,,space,keypress(Space),,,,133488,133483.2000000002,124102.87,124113.90000000037,124135.879,133493.947,,,
fixation,canvas.Screen,0_5_0_0,2022-07-15T14:22:49.750Z,,,,,,6,499.3760000000184,timeout,,,0.515,,,,,,,,,,,,,,,,,0.485,true,133978.2999999998,133976.96,133477.123,133488.2999999998,133493.947,133993.323,,,
stimulus,canvas.Screen,0_5_0_1,2022-07-15T14:22:51.010Z,,,,,,6,1242.676999999996,response,,0.485,0.515,,,https://raw.githubusercontent.com/carero2/loss-perception/main/png/0.485blue1yellowb%3D1w%3D100v%3D54.png,https://raw.githubusercontent.com/carero2/loss-perception/main/png/0.515blue1yellowb%3D1w%3D100v%3D54.png,,,,,,,,,true,f,keypress(f),0.515,0.485,true,135238,135236,133976.96,133978.5,133993.323,135242.164,,,
choice,canvas.Screen,0_5_0_2,2022-07-15T14:22:52.997Z,,,,0.485,,6,1998.326000000001,timeout,,,0.515,,0.515,,,-3,,,,,,,-3,,,,,0.485,true,137225.10000000056,137223.776,135225.65,135239,135242.164,137240.49,,97,
timeout,canvas.Screen,0_5_0_3,2022-07-15T14:22:52.999Z,,,,,,6,NaN,skipped,,,0.515,,,,,,,,,,,,,,,,,0.485,true,137227.7000000002,137223.776,,137227.2999999998,,137240.49,,,
ITI,canvas.Screen,0_5_0_4,2022-07-15T14:22:53.496Z,,,,,,6,499.92699999999604,timeout,,,0.515,,,,,,,,,,,,,,,,,0.485,true,137724.2999999998,137723.277,137223.776,137227.90000000037,137240.49,137740.417,,,
trial,flow.Sequence,0_5_0,2022-07-15T14:22:53.497Z,,,,,,6,4229.330000000016,completion,,,0.515,,,,,,,,,,,,,,,,,0.485,true,137725.7000000002,137723.277,133477.123,133488.2999999998,133493.947,137740.417,,,
fixation,canvas.Screen,0_5_1_0,2022-07-15T14:22:53.996Z,,,,,,6,499.2140000000072,timeout,,,0.485,,,,,,,,,,,,,,,,,0.455,true,138224,138222.9,137723.277,137726.10000000056,137740.417,138239.631,,,
stimulus,canvas.Screen,0_5_1_1,2022-07-15T14:22:55.185Z,,,,,,6,1172.2690000003786,response,,0.455,0.485,,,https://raw.githubusercontent.com/carero2/loss-perception/main/png/0.455blue1yellowb%3D1w%3D100v%3D55.png,https://raw.githubusercontent.com/carero2/loss-perception/main/png/0.485blue1yellowb%3D1w%3D100v%3D55.png,,,,,,,,,true,f,keypress(f),0.485,0.455,true,139413.60000000056,139411.90000000037,138222.9,138224.2000000002,138239.631,139421.624,,,
choice,canvas.Screen,0_5_1_2,2022-07-15T14:22:57.176Z,,,,0.455,,6,1998.3439999999828,timeout,,,0.485,,0.485,,,-9,,,,,,,-12,,,,,0.455,true,141404.5,141403.367,139405.2,139416.7999999998,139421.624,141419.968,,88,
timeout,canvas.Screen,0_5_1_3,2022-07-15T14:22:57.178Z,,,,,,6,NaN,skipped,,,0.485,,,,,,,,,,,,,,,,,0.455,true,141406.2999999998,141403.367,,141406,,141419.968,,,
ITI,canvas.Screen,0_5_1_4,2022-07-15T14:22:57.676Z,,,,,,6,500.6000000000058,timeout,,,0.485,,,,,,,,,,,,,,,,,0.455,true,141904,141902.905,141403.367,141406.5,141419.968,141920.568,,,
trial,flow.Sequence,0_5_1,2022-07-15T14:22:57.676Z,,,,,,6,4162.488000000012,completion,,,0.485,,,,,,,,,,,,,,,,,0.455,true,141904.2999999998,141902.905,137723.277,137726.10000000056,137740.417,141920.568,,,
fixation,canvas.Screen,0_5_2_0,2022-07-15T14:22:58.175Z,,,,,,9,498.71199999999953,timeout,,,0.485,,,,,,,,,,,,,,,,,0.53,false,142403.2999999998,142402.205,141902.905,141904.5,141920.568,142419.28,,,
stimulus,canvas.Screen,0_5_2_1,2022-07-15T14:23:00.109Z,,,,,,9,1917.1200000003737,response,,0.485,0.485,,,https://raw.githubusercontent.com/carero2/loss-perception/main/png/0.485blue1yellowb%3D1w%3D100v%3D34.png,https://raw.githubusercontent.com/carero2/loss-perception/main/png/0.53blue1yellowb%3D1w%3D100v%3D34.png,,,,,,,,,true,f,keypress(f),0.53,0.53,false,144337.7000000002,144336.40000000037,142402.205,142403.5,142419.28,144350.418,,,
choice,canvas.Screen,0_5_2_2,2022-07-15T14:23:02.105Z,,,,0.485,,9,1998.3349999999919,timeout,,,0.485,,0.53,,,-3,,,,,,,-15,,,,,0.53,false,146333.2000000002,146332.09,144333.687,144343.2000000002,144350.418,146348.753,,85,
timeout,canvas.Screen,0_5_2_3,2022-07-15T14:23:02.107Z,,,,,,9,NaN,skipped,,,0.485,,,,,,,,,,,,,,,,,0.53,false,146335.40000000037,146332.09,,146335.2000000002,,146348.753,,,
ITI,canvas.Screen,0_5_2_4,2022-07-15T14:23:02.604Z,,,,,,9,499.46199999999953,timeout,,,0.485,,,,,,,,,,,,,,,,,0.53,false,146832.60000000056,146831.584,146332.09,146335.60000000056,146348.753,146848.215,,,
trial,flow.Sequence,0_5_2,2022-07-15T14:23:02.605Z,,,,,,9,4911.016000000003,completion,,,0.485,,,,,,,,,,,,,,,,,0.53,false,146832.90000000037,146831.584,141902.905,141904.5,141920.568,146848.215,,,
fixation,canvas.Screen,0_5_3_0,2022-07-15T14:23:03.104Z,,,,,,12,499.41300000000047,timeout,,,0.53,,,,,,,,,,,,,,,,,0.47,true,147332.40000000037,147331.187,146831.584,146833,146848.215,147347.628,,,
stimulus,canvas.Screen,0_5_3_1,2022-07-15T14:23:04.587Z,,,,,,12,1466.7720000003756,response,,0.47,0.53,,,https://raw.githubusercontent.com/carero2/loss-perception/main/png/0.47blue1yellowb%3D1w%3D100v%3D47.png,https://raw.githubusercontent.com/carero2/loss-perception/main/png/0.53blue1yellowb%3D1w%3D100v%3D47.png,,,,,,,,,true,f,keypress(f),0.53,0.47,true,148815.7000000002,148814.40000000037,147331.187,147332.5,147347.628,148829.889,,,
choice,canvas.Screen,0_5_3_2,2022-07-15T14:23:06.584Z,,,,0.47,,12,1997.978999999992,timeout,,,0.53,,0.53,,,-6,,,,,,,-21,,,,,0.47,true,150812.2000000002,150811.293,148812.892,148818.7999999998,148829.889,150827.868,,79,
timeout,canvas.Screen,0_5_3_3,2022-07-15T14:23:06.586Z,,,,,,12,NaN,skipped,,,0.53,,,,,,,,,,,,,,,,,0.47,true,150813.90000000037,150811.293,,150813.60000000056,,150827.868,,,
ITI,canvas.Screen,0_5_3_4,2022-07-15T14:23:07.084Z,,,,,,12,502.74300000001676,timeout,,,0.53,,,,,,,,,,,,,,,,,0.47,true,151312.60000000056,151311.201,150811.293,150814,150827.868,151330.611,,,
trial,flow.Sequence,0_5_3,2022-07-15T14:23:07.085Z,,,,,,12,4462.986000000004,completion,,,0.53,,,,,,,,,,,,,,,,,0.47,true,151313.2000000002,151311.201,146831.584,146833,146848.215,151330.611,,,
fixation,canvas.Screen,0_5_4_0,2022-07-15T14:23:07.583Z,,,,,,6,496.1009999999951,timeout,,,0.545,,,,,,,,,,,,,,,,,0.515,true,151811.2999999998,151810.303,151311.201,151313.40000000037,151330.611,151826.712,,,
stimulus,canvas.Screen,0_5_4_1,2022-07-15T14:23:08.986Z,,,,,,6,1390.8880000005593,response,,0.515,0.545,,,https://raw.githubusercontent.com/carero2/loss-perception/main/png/0.515blue1yellowb%3D1w%3D100v%3D88.png,https://raw.githubusercontent.com/carero2/loss-perception/main/png/0.545blue1yellowb%3D1w%3D100v%3D88.png,,,,,,,,,true,j,keypress(j),0.545,0.515,true,153218.90000000037,153217.60000000056,151810.303,151811.60000000056,151826.712,153252.915,,,
choice,canvas.Screen,0_5_4_2,2022-07-15T14:23:11.009Z,,,,0.545,,6,2004.8610000000044,timeout,,,0.545,,0.515,,,9,,,,,,,-12,,,,,0.515,true,155241.5,155240.442,153209.002,153224.2000000002,153252.915,155257.776,,88,
timeout,canvas.Screen,0_5_4_3,2022-07-15T14:23:11.010Z,,,,,,6,NaN,skipped,,,0.545,,,,,,,,,,,,,,,,,0.515,true,155243,155240.442,,155242.7000000002,,155257.776,,,
ITI,canvas.Screen,0_5_4_4,2022-07-15T14:23:11.508Z,,,,,,6,498.82499999998254,timeout,,,0.545,,,,,,,,,,,,,,,,,0.515,true,155740.7000000002,155739.828,155240.442,155243.2000000002,155257.776,155756.601,,,
trial,flow.Sequence,0_5_4,2022-07-15T14:23:11.508Z,,,,,,6,4409.217000000004,completion,,,0.545,,,,,,,,,,,,,,,,,0.515,true,155741.10000000056,155739.828,151311.201,151313.2999999998,151330.611,155756.601,,,
fixation,canvas.Screen,0_5_5_0,2022-07-15T14:23:12.008Z,,,,,,18,499.4630000000179,timeout,,,0.545,,,,,,,,,,,,,,,,,0.455,false,156240.5,156239.516,155739.828,155741.2000000002,155756.601,156256.064,,,
stimulus,canvas.Screen,0_5_5_1,2022-07-15T14:23:12.790Z,,,,,,18,765.3360000003595,response,,0.545,0.545,,,https://raw.githubusercontent.com/carero2/loss-perception/main/png/0.545blue1yellowb%3D1w%3D100v%3D87.png,https://raw.githubusercontent.com/carero2/loss-perception/main/png/0.455blue1yellowb%3D1w%3D100v%3D87.png,,,,,,,,,true,f,keypress(f),0.455,0.455,false,157022.60000000056,157021.40000000037,156239.516,156240.7000000002,156256.064,157038.964,,,
choice,canvas.Screen,0_5_5_2,2022-07-15T14:23:14.788Z,,,,0.545,,18,1997.9599999999919,timeout,,,0.545,,0.455,,,9,,,,,,,-3,,,,,0.455,false,159021.2999999998,159020.181,157022.214,157027.7999999998,157038.964,159036.924,,97,
timeout,canvas.Screen,0_5_5_3,2022-07-15T14:23:14.790Z,,,,,,18,NaN,skipped,,,0.545,,,,,,,,,,,,,,,,,0.455,false,159023.2000000002,159020.181,,159022.90000000037,,159036.924,,,
ITI,canvas.Screen,0_5_5_4,2022-07-15T14:23:15.288Z,,,,,,18,499.5089999999909,timeout,,,0.545,,,,,,,,,,,,,,,,,0.455,false,159520.7999999998,159519.8,159020.181,159023.40000000037,159036.924,159536.433,,,
trial,flow.Sequence,0_5_5,2022-07-15T14:23:15.288Z,,,,,,18,3763.1989999999932,completion,,,0.545,,,,,,,,,,,,,,,,,0.455,false,159521.10000000056,159519.8,155739.828,155741.2000000002,155756.601,159536.433,,,
fixation,canvas.Screen,0_5_6_0,2022-07-15T14:23:15.787Z,,,,,,6,499.2820000000065,timeout,,,0.515,,,,,,,,,,,,,,,,,0.485,true,160020.2000000002,160019.368,159519.8,159521.2000000002,159536.433,160035.715,,,
stimulus,canvas.Screen,0_5_6_1,2022-07-15T14:23:16.680Z,,,,,,6,875.185000000376,response,,0.485,0.515,,,https://raw.githubusercontent.com/carero2/loss-perception/main/png/0.485blue1yellowb%3D1w%3D100v%3D76.png,https://raw.githubusercontent.com/carero2/loss-perception/main/png/0.515blue1yellowb%3D1w%3D100v%3D76.png,,,,,,,,,true,j,keypress(j),0.515,0.485,true,160912.7000000002,160910.90000000037,160019.368,160020.2999999998,160035.715,160918.205,,,
choice,canvas.Screen,0_5_6_2,2022-07-15T14:23:18.668Z,,,,0.515,,6,1998.2180000000226,timeout,,,0.515,,0.485,,,3,,,,,,,0,,,,,0.485,true,162901,162900.042,160901.618,160915.2999999998,160918.205,162916.423,,100,
timeout,canvas.Screen,0_5_6_3,2022-07-15T14:23:18.670Z,,,,,,6,NaN,skipped,,,0.515,,,,,,,,,,,,,,,,,0.485,true,162903.2000000002,162900.042,,162902.90000000037,,162916.423,,,
ITI,canvas.Screen,0_5_6_4,2022-07-15T14:23:19.167Z,,,,,,6,499.625,timeout,,,0.515,,,,,,,,,,,,,,,,,0.485,true,163400.5,163399.483,162900.042,162903.2999999998,162916.423,163416.048,,,
trial,flow.Sequence,0_5_6,2022-07-15T14:23:19.168Z,,,,,,6,3863.0500000000175,completion,,,0.515,,,,,,,,,,,,,,,,,0.485,true,163400.7999999998,163399.483,159519.8,159521.2000000002,159536.433,163416.048,,,
fixation,canvas.Screen,0_5_7_0,2022-07-15T14:23:19.667Z,,,,,,6,499.78999999997905,timeout,,,0.545,,,,,,,,,,,,,,,,,0.515,false,163900.10000000056,163898.939,163399.483,163400.90000000037,163416.048,163915.838,,,
stimulus,canvas.Screen,0_5_7_1,2022-07-15T14:23:20.389Z,,,,,,6,704.1620000000112,response,,0.545,0.545,,,https://raw.githubusercontent.com/carero2/loss-perception/main/png/0.545blue1yellowb%3D1w%3D100v%3D56.png,https://raw.githubusercontent.com/carero2/loss-perception/main/png/0.515blue1yellowb%3D1w%3D100v%3D56.png,,,,,,,,,true,f,keypress(f),0.515,0.515,false,164621.7000000002,164620,163898.939,163900.2999999998,163915.838,164631.4,,,
choice,canvas.Screen,0_5_7_2,2022-07-15T14:23:22.381Z,,,,0.545,,6,1998.3340000000026,timeout,,,0.545,,0.515,,,9,,,,,,,9,,,,,0.515,false,166614.10000000056,166613.084,164614.888,164623.2999999998,164631.4,166629.734,,109,
timeout,canvas.Screen,0_5_7_3,2022-07-15T14:23:22.383Z,,,,,,6,NaN,skipped,,,0.545,,,,,,,,,,,,,,,,,0.515,false,166616.2999999998,166613.084,,166616.10000000056,,166629.734,,,
ITI,canvas.Screen,0_5_7_4,2022-07-15T14:23:22.881Z,,,,,,6,499.6160000000091,timeout,,,0.545,,,,,,,,,,,,,,,,,0.515,false,167113.60000000056,167112.697,166613.084,166616.5,166629.734,167129.35,,,
trial,flow.Sequence,0_5_7,2022-07-15T14:23:22.881Z,,,,,,6,3696.648999999976,completion,,,0.545,,,,,,,,,,,,,,,,,0.515,false,167113.90000000037,167112.697,163399.483,163400.7999999998,163416.048,167129.35,,,
fixation,canvas.Screen,0_5_8_0,2022-07-15T14:23:23.380Z,,,,,,6,499.25599999999395,timeout,,,0.485,,,,,,,,,,,,,,,,,0.455,false,167613,167612.119,167112.697,167114.10000000056,167129.35,167628.606,,,
stimulus,canvas.Screen,0_5_8_1,2022-07-15T14:23:24.369Z,,,,,,6,971.693999999814,response,,0.485,0.485,,,https://raw.githubusercontent.com/carero2/loss-perception/main/png/0.485blue1yellowb%3D1w%3D100v%3D50.png,https://raw.githubusercontent.com/carero2/loss-perception/main/png/0.455blue1yellowb%3D1w%3D100v%3D50.png,,,,,,,,,true,f,keypress(f),0.455,0.455,false,168601.7000000002,168600.2999999998,167612.119,167613.2000000002,167628.606,168611.003,,,
choice,canvas.Screen,0_5_8_2,2022-07-15T14:23:26.361Z,,,,0.485,,6,1998.426999999996,timeout,,,0.485,,0.455,,,-3,,,,,,,6,,,,,0.455,false,170593.7999999998,170592.77,168594.509,168604.7999999998,168611.003,170609.43,,106,
timeout,canvas.Screen,0_5_8_3,2022-07-15T14:23:26.363Z,,,,,,6,NaN,skipped,,,0.485,,,,,,,,,,,,,,,,,0.455,false,170595.7999999998,170592.77,,170595.60000000056,,170609.43,,,
ITI,canvas.Screen,0_5_8_4,2022-07-15T14:23:26.860Z,,,,,,6,499.5460000000021,timeout,,,0.485,,,,,,,,,,,,,,,,,0.455,false,171093.2000000002,171092.314,170592.77,170596,170609.43,171108.976,,,
trial,flow.Sequence,0_5_8,2022-07-15T14:23:26.861Z,,,,,,6,3962.964000000007,completion,,,0.485,,,,,,,,,,,,,,,,,0.455,false,171093.40000000037,171092.314,167112.697,167114,167129.35,171108.976,,,
fixation,canvas.Screen,0_5_9_0,2022-07-15T14:23:27.360Z,,,,,,12,499.372000000003,timeout,,,0.53,,,,,,,,,,,,,,,,,0.47,true,171592.7000000002,171591.842,171092.314,171093.60000000056,171108.976,171608.348,,,
stimulus,canvas.Screen,0_5_9_1,2022-07-15T14:23:28.876Z,,,,,,12,1499.5520000003744,response,,0.47,0.53,,,https://raw.githubusercontent.com/carero2/loss-perception/main/png/0.47blue1yellowb%3D1w%3D100v%3D45.png,https://raw.githubusercontent.com/carero2/loss-perception/main/png/0.53blue1yellowb%3D1w%3D100v%3D45.png,,,,,,,,,true,j,keypress(j),0.53,0.47,true,173109.40000000037,173107.90000000037,171591.842,171592.7999999998,171608.348,173124.093,,,
choice,canvas.Screen,0_5_9_2,2022-07-15T14:23:30.873Z,,,,0.53,,12,1998.8209999999963,timeout,,,0.53,,0.47,,,6,,,,,,,12,,,,,0.47,true,175106.2000000002,175105.144,173107.164,173112.10000000056,173124.093,175122.914,,112,
timeout,canvas.Screen,0_5_9_3,2022-07-15T14:23:30.875Z,,,,,,12,NaN,skipped,,,0.53,,,,,,,,,,,,,,,,,0.47,true,175107.5,175105.144,,175107.2999999998,,175122.914,,,
ITI,canvas.Screen,0_5_9_4,2022-07-15T14:23:31.373Z,,,,,,12,498.6000000000058,timeout,,,0.53,,,,,,,,,,,,,,,,,0.47,true,175605.7000000002,175604.769,175105.144,175107.7999999998,175122.914,175621.514,,,
trial,flow.Sequence,0_5_9,2022-07-15T14:23:31.373Z,,,,,,12,4495.793000000005,completion,,,0.53,,,,,,,,,,,,,,,,,0.47,true,175606,175604.769,171092.314,171093.60000000056,171108.976,175621.514,,,
fixation,canvas.Screen,0_5_10_0,2022-07-15T14:23:31.872Z,,,,,,18,499.39400000000023,timeout,,,0.545,,,,,,,,,,,,,,,,,0.455,true,176105.2999999998,176104.288,175604.769,175606.2000000002,175621.514,176120.908,,,
stimulus,canvas.Screen,0_5_10_1,2022-07-15T14:23:32.947Z,,,,,,18,1057.891999999818,response,,0.455,0.545,,,https://raw.githubusercontent.com/carero2/loss-perception/main/png/0.455blue1yellowb%3D1w%3D100v%3D80.png,https://raw.githubusercontent.com/carero2/loss-perception/main/png/0.545blue1yellowb%3D1w%3D100v%3D80.png,,,,,,,,,true,j,keypress(j),0.545,0.455,true,177180.2000000002,177178.7999999998,176104.288,176105.60000000056,176120.908,177188.231,,,
choice,canvas.Screen,0_5_10_2,2022-07-15T14:23:34.936Z,,,,0.545,,18,1996.75,timeout,,,0.545,,0.455,,,9,,,,,,,21,,,,,0.455,true,179169.10000000056,179168.086,177169.735,177181.5,177188.231,179184.981,,121,
timeout,canvas.Screen,0_5_10_3,2022-07-15T14:23:34.938Z,,,,,,18,NaN,skipped,,,0.545,,,,,,,,,,,,,,,,,0.455,true,179171,179168.086,,179170.7999999998,,179184.981,,,
ITI,canvas.Screen,0_5_10_4,2022-07-15T14:23:35.436Z,,,,,,18,499.01699999999255,timeout,,,0.545,,,,,,,,,,,,,,,,,0.455,true,179668.5,179667.438,179168.086,179171.2000000002,179184.981,179683.998,,,
trial,flow.Sequence,0_5_10,2022-07-15T14:23:35.436Z,,,,,,18,4045.923999999999,completion,,,0.545,,,,,,,,,,,,,,,,,0.455,true,179668.90000000037,179667.438,175604.769,175606.2000000002,175621.514,179683.998,,,
fixation,canvas.Screen,0_5_11_0,2022-07-15T14:23:35.935Z,,,,,,9,499.81299999999464,timeout,,,0.485,,,,,,,,,,,,,,,,,0.53,true,180168.10000000056,180167.153,179667.438,179669.10000000056,179683.998,180183.811,,,
stimulus,canvas.Screen,0_5_11_1,2022-07-15T14:23:36.610Z,,,,,,9,657.4889999998268,response,,0.53,0.485,,,https://raw.githubusercontent.com/carero2/loss-perception/main/png/0.53blue1yellowb%3D1w%3D100v%3D86.png,https://raw.githubusercontent.com/carero2/loss-perception/main/png/0.485blue1yellowb%3D1w%3D100v%3D86.png,,,,,,,,,true,f,keypress(f),0.485,0.53,true,180843.40000000037,180841.2999999998,180167.153,180168.2999999998,180183.811,180849.589,,,
choice,canvas.Screen,0_5_11_2,2022-07-15T14:23:38.599Z,,,,0.53,,9,1998.3669999999984,timeout,,,0.485,,0.485,,,6,,,,,,,27,,,,,0.53,true,182832.2999999998,182831.239,180833.113,180845.60000000056,180849.589,182847.956,,127,
timeout,canvas.Screen,0_5_11_3,2022-07-15T14:23:38.601Z,,,,,,9,NaN,skipped,,,0.485,,,,,,,,,,,,,,,,,0.53,true,182833.90000000037,182831.239,,182833.7000000002,,182847.956,,,
ITI,canvas.Screen,0_5_11_4,2022-07-15T14:23:39.104Z,,,,,,9,499.94999999998254,timeout,,,0.485,,,,,,,,,,,,,,,,,0.53,true,183336.7000000002,183330.874,182831.239,182834.10000000056,182847.956,183347.906,,,
trial,flow.Sequence,0_5_11,2022-07-15T14:23:39.104Z,,,,,,9,3646.8760000000184,completion,,,0.485,,,,,,,,,,,,,,,,,0.53,true,183337,183330.874,179667.438,179669,179683.998,183347.906,,,
fixation,canvas.Screen,0_5_12_0,2022-07-15T14:23:39.598Z,,,,,,6,499.40200000000186,timeout,,,0.515,,,,,,,,,,,,,,,,,0.485,true,183831.5,183830.412,183330.874,183337.2000000002,183347.906,183847.308,,,
stimulus,canvas.Screen,0_5_12_1,2022-07-15T14:23:40.994Z,,,,,,6,1377.2920000005688,response,,0.485,0.515,,,https://raw.githubusercontent.com/carero2/loss-perception/main/png/0.485blue1yellowb%3D1w%3D100v%3D62.png,https://raw.githubusercontent.com/carero2/loss-perception/main/png/0.515blue1yellowb%3D1w%3D100v%3D62.png,,,,,,,,,true,j,keypress(j),0.515,0.485,true,185226.90000000037,185224.60000000056,183830.412,183831.60000000056,183847.308,185245.981,,,
choice,canvas.Screen,0_5_12_2,2022-07-15T14:23:42.995Z,,,,0.515,,6,1997.9109999999928,timeout,,,0.515,,0.485,,,3,,,,,,,30,,,,,0.485,true,187228.5,187227.252,185229.039,185230.7000000002,185245.981,187243.892,,130,
timeout,canvas.Screen,0_5_12_3,2022-07-15T14:23:42.998Z,,,,,,6,NaN,skipped,,,0.515,,,,,,,,,,,,,,,,,0.485,true,187230.7999999998,187227.252,,187230.5,,187243.892,,,
ITI,canvas.Screen,0_5_12_4,2022-07-15T14:23:43.495Z,,,,,,6,499.54899999999907,timeout,,,0.515,,,,,,,,,,,,,,,,,0.485,true,187727.7999999998,187726.781,187227.252,187231,187243.892,187743.441,,,
trial,flow.Sequence,0_5_12,2022-07-15T14:23:43.495Z,,,,,,6,4378.875,completion,,,0.515,,,,,,,,,,,,,,,,,0.485,true,187728.2999999998,187726.781,183330.874,183337.2000000002,183347.906,187743.441,,,
fixation,canvas.Screen,0_5_13_0,2022-07-15T14:23:43.995Z,,,,,,6,499.7600000000093,timeout,,,0.545,,,,,,,,,,,,,,,,,0.515,false,188227.7000000002,188226.394,187726.781,187728.40000000037,187743.441,188243.201,,,
stimulus,canvas.Screen,0_5_13_1,2022-07-15T14:23:44.708Z,,,,,,6,695.4990000001853,response,,0.545,0.545,,,https://raw.githubusercontent.com/carero2/loss-perception/main/png/0.545blue1yellowb%3D1w%3D100v%3D8.png,https://raw.githubusercontent.com/carero2/loss-perception/main/png/0.515blue1yellowb%3D1w%3D100v%3D8.png,,,,,,,,,true,f,keypress(f),0.515,0.515,false,188941.10000000056,188938.7000000002,188226.394,188227.90000000037,188243.201,188958.817,,,
choice,canvas.Screen,0_5_13_2,2022-07-15T14:23:46.709Z,,,,0.545,,6,1998.4339999999793,timeout,,,0.545,,0.515,,,9,,,,,,,39,,,,,0.515,false,190941.5,190940.434,188942.373,188945.5,188958.817,190957.251,,139,
timeout,canvas.Screen,0_5_13_3,2022-07-15T14:23:46.710Z,,,,,,6,NaN,skipped,,,0.545,,,,,,,,,,,,,,,,,0.515,false,190943.40000000037,190940.434,,190943.2000000002,,190957.251,,,
ITI,canvas.Screen,0_5_13_4,2022-07-15T14:23:47.208Z,,,,,,6,499.5470000000205,timeout,,,0.545,,,,,,,,,,,,,,,,,0.515,false,191440.7999999998,191439.91,190940.434,190943.60000000056,190957.251,191456.798,,,
trial,flow.Sequence,0_5_13,2022-07-15T14:23:47.208Z,,,,,,6,3696.469000000012,completion,,,0.545,,,,,,,,,,,,,,,,,0.515,false,191441,191439.91,187726.781,187728.40000000037,187743.441,191456.798,,,
fixation,canvas.Screen,0_5_14_0,2022-07-15T14:23:47.708Z,,,,,,18,499.0899999999965,timeout,,,0.545,,,,,,,,,,,,,,,,,0.455,true,191940.60000000056,191939.436,191439.91,191441.10000000056,191456.798,191955.888,,,
stimulus,canvas.Screen,0_5_14_1,2022-07-15T14:23:48.294Z,,,,,,18,567.9119999998074,response,,0.455,0.545,,,https://raw.githubusercontent.com/carero2/loss-perception/main/png/0.455blue1yellowb%3D1w%3D100v%3D75.png,https://raw.githubusercontent.com/carero2/loss-perception/main/png/0.545blue1yellowb%3D1w%3D100v%3D75.png,,,,,,,,,true,j,keypress(j),0.545,0.455,true,192526.7000000002,192523.7999999998,191939.436,191941,191955.888,192538.659,,,
choice,canvas.Screen,0_5_14_2,2022-07-15T14:23:50.288Z,,,,0.545,,18,1998.18299999999,timeout,,,0.545,,0.455,,,9,,,,,,,48,,,,,0.455,true,194521.40000000037,194520.35,192522.152,192530.7000000002,192538.659,194536.842,,148,
timeout,canvas.Screen,0_5_14_3,2022-07-15T14:23:50.291Z,,,,,,18,NaN,skipped,,,0.545,,,,,,,,,,,,,,,,,0.455,true,194523.5,194520.35,,194523.2000000002,,194536.842,,,
ITI,canvas.Screen,0_5_14_4,2022-07-15T14:23:50.788Z,,,,,,18,499.63300000000163,timeout,,,0.545,,,,,,,,,,,,,,,,,0.455,true,195020.7999999998,195019.995,194520.35,194523.60000000056,194536.842,195036.475,,,
trial,flow.Sequence,0_5_14,2022-07-15T14:23:50.788Z,,,,,,18,3563.1969999999856,completion,,,0.545,,,,,,,,,,,,,,,,,0.455,true,195021.10000000056,195019.995,191439.91,191441,191456.798,195036.475,,,
fixation,canvas.Screen,0_5_15_0,2022-07-15T14:23:51.287Z,,,,,,12,499.3640000000014,timeout,,,0.53,,,,,,,,,,,,,,,,,0.47,true,195520.5,195519.368,195019.995,195021.2000000002,195036.475,195535.839,,,
stimulus,canvas.Screen,0_5_15_1,2022-07-15T14:23:51.938Z,,,,,,12,633.6609999999928,response,,0.47,0.53,,,https://raw.githubusercontent.com/carero2/loss-perception/main/png/0.47blue1yellowb%3D1w%3D100v%3D98.png,https://raw.githubusercontent.com/carero2/loss-perception/main/png/0.53blue1yellowb%3D1w%3D100v%3D98.png,,,,,,,,,true,j,keypress(j),0.53,0.47,true,196170.7999999998,196169.5,195519.368,195520.5,195535.839,196185.45,,,
choice,canvas.Screen,0_5_15_2,2022-07-15T14:23:53.935Z,,,,0.53,,12,1998.1409999999742,timeout,,,0.53,,0.47,,,6,,,,,,,54,,,,,0.47,true,198168.2000000002,198167.031,196168.79,196172.7999999998,196185.45,198183.591,,154,
timeout,canvas.Screen,0_5_15_3,2022-07-15T14:23:53.937Z,,,,,,12,NaN,skipped,,,0.53,,,,,,,,,,,,,,,,,0.47,true,198169.90000000037,198167.031,,198169.7999999998,,198183.591,,,
ITI,canvas.Screen,0_5_15_4,2022-07-15T14:23:54.434Z,,,,,,12,499.5260000000126,timeout,,,0.53,,,,,,,,,,,,,,,,,0.47,true,198667.2000000002,198666.288,198167.031,198170.2000000002,198183.591,198683.117,,,
trial,flow.Sequence,0_5_15,2022-07-15T14:23:54.435Z,,,,,,12,3629.8129999999946,completion,,,0.53,,,,,,,,,,,,,,,,,0.47,true,198667.5,198666.288,195019.995,195021.2000000002,195036.475,198683.117,,,
fixation,canvas.Screen,0_5_16_0,2022-07-15T14:23:54.934Z,,,,,,9,499.77799999999115,timeout,,,0.485,,,,,,,,,,,,,,,,,0.53,true,199167.2000000002,199166.115,198666.288,198667.7000000002,198683.117,199182.895,,,
stimulus,canvas.Screen,0_5_16_1,2022-07-15T14:23:55.625Z,,,,,,9,672.7050000005693,response,,0.53,0.485,,,https://raw.githubusercontent.com/carero2/loss-perception/main/png/0.53blue1yellowb%3D1w%3D100v%3D73.png,https://raw.githubusercontent.com/carero2/loss-perception/main/png/0.485blue1yellowb%3D1w%3D100v%3D73.png,,,,,,,,,true,f,keypress(f),0.485,0.53,true,199857.7999999998,199855.60000000056,199166.115,199167.40000000037,199182.895,199865.276,,,
choice,canvas.Screen,0_5_16_2,2022-07-15T14:23:57.616Z,,,,0.53,,9,1998.295999999973,timeout,,,0.485,,0.485,,,6,,,,,,,60,,,,,0.53,true,201848.7000000002,201846.945,199848.858,199861.2000000002,199865.276,201863.572,,160,
timeout,canvas.Screen,0_5_16_3,2022-07-15T14:23:57.618Z,,,,,,9,NaN,skipped,,,0.485,,,,,,,,,,,,,,,,,0.53,true,201851,201846.945,,201850.7999999998,,201863.572,,,
ITI,canvas.Screen,0_5_16_4,2022-07-15T14:23:58.114Z,,,,,,9,499.36900000000605,timeout,,,0.485,,,,,,,,,,,,,,,,,0.53,true,202347.40000000037,202346.447,201846.945,201851.2000000002,201863.572,202362.941,,,
trial,flow.Sequence,0_5_16,2022-07-15T14:23:58.115Z,,,,,,9,3663.329999999987,completion,,,0.485,,,,,,,,,,,,,,,,,0.53,true,202347.7999999998,202346.447,198666.288,198667.60000000056,198683.117,202362.941,,,
fixation,canvas.Screen,0_5_17_0,2022-07-15T14:23:58.614Z,,,,,,6,499.747000000003,timeout,,,0.485,,,,,,,,,,,,,,,,,0.455,true,202847.2000000002,202845.979,202346.447,202348,202362.941,202862.688,,,
stimulus,canvas.Screen,0_5_17_1,2022-07-15T14:23:59.565Z,,,,,,6,932.9120000005641,response,,0.455,0.485,,,https://raw.githubusercontent.com/carero2/loss-perception/main/png/0.455blue1yellowb%3D1w%3D100v%3D18.png,https://raw.githubusercontent.com/carero2/loss-perception/main/png/0.485blue1yellowb%3D1w%3D100v%3D18.png,,,,,,,,,true,f,keypress(f),0.485,0.455,true,203798.10000000056,203795.60000000056,202845.979,202847.2999999998,202862.688,203811.894,,,
choice,canvas.Screen,0_5_17_2,2022-07-15T14:24:01.561Z,,,,0.455,,6,1997.9010000000126,timeout,,,0.485,,0.485,,,-9,,,,,,,51,,,,,0.455,true,205794.2000000002,205793.113,203795.056,203801.60000000056,203811.894,205809.795,,151,
timeout,canvas.Screen,0_5_17_3,2022-07-15T14:24:01.563Z,,,,,,6,NaN,skipped,,,0.485,,,,,,,,,,,,,,,,,0.455,true,205796.2999999998,205793.113,,205796.10000000056,,205809.795,,,
ITI,canvas.Screen,0_5_17_4,2022-07-15T14:24:02.061Z,,,,,,6,499.7049999999872,timeout,,,0.485,,,,,,,,,,,,,,,,,0.455,true,206294.40000000037,206292.897,205793.113,205796.5,205809.795,206309.5,,,
trial,flow.Sequence,0_5_17,2022-07-15T14:24:02.062Z,,,,,,6,3929.9560000000056,completion,,,0.485,,,,,,,,,,,,,,,,,0.455,true,206294.7999999998,206292.897,202346.447,202348,202362.941,206309.5,,,
fixation,canvas.Screen,0_5_18_0,2022-07-15T14:24:02.560Z,,,,,,6,499.14400000000023,timeout,,,0.515,,,,,,,,,,,,,,,,,0.485,false,206793.2999999998,206792.21,206292.897,206294.90000000037,206309.5,206808.644,,,
stimulus,canvas.Screen,0_5_18_1,2022-07-15T14:24:03.252Z,,,,,,6,674.056000000186,response,,0.515,0.515,,,https://raw.githubusercontent.com/carero2/loss-perception/main/png/0.515blue1yellowb%3D1w%3D100v%3D54.png,https://raw.githubusercontent.com/carero2/loss-perception/main/png/0.485blue1yellowb%3D1w%3D100v%3D54.png,,,,,,,,,true,f,keypress(f),0.485,0.485,false,207485.10000000056,207482.7000000002,206792.21,206793.40000000037,206808.644,207491.521,,,
choice,canvas.Screen,0_5_18_2,2022-07-15T14:24:05.241Z,,,,0.515,,6,1998.411999999982,timeout,,,0.515,,0.485,,,3,,,,,,,54,,,,,0.485,false,209474.2000000002,209473.019,207474.844,207489,207491.521,209489.933,,154,
timeout,canvas.Screen,0_5_18_3,2022-07-15T14:24:05.243Z,,,,,,6,NaN,skipped,,,0.515,,,,,,,,,,,,,,,,,0.485,false,209476.40000000037,209473.019,,209476.10000000056,,209489.933,,,
ITI,canvas.Screen,0_5_18_4,2022-07-15T14:24:05.741Z,,,,,,6,499.42699999999604,timeout,,,0.515,,,,,,,,,,,,,,,,,0.485,false,209973.60000000056,209972.57,209473.019,209476.60000000056,209489.933,209989.36,,,
trial,flow.Sequence,0_5_18,2022-07-15T14:24:05.741Z,,,,,,6,3663.070000000007,completion,,,0.515,,,,,,,,,,,,,,,,,0.485,false,209974,209972.57,206292.897,206294.7999999998,206309.5,209989.36,,,
fixation,canvas.Screen,0_5_19_0,2022-07-15T14:24:06.240Z,,,,,,6,499.5430000000051,timeout,,,0.485,,,,,,,,,,,,,,,,,0.455,false,210473.2999999998,210472.22,209972.57,209974.2000000002,209989.36,210488.903,,,
stimulus,canvas.Screen,0_5_19_1,2022-07-15T14:24:06.999Z,,,,,,6,740.8969999998226,response,,0.485,0.485,,,https://raw.githubusercontent.com/carero2/loss-perception/main/png/0.485blue1yellowb%3D1w%3D100v%3D39.png,https://raw.githubusercontent.com/carero2/loss-perception/main/png/0.455blue1yellowb%3D1w%3D100v%3D39.png,,,,,,,,,true,f,keypress(f),0.455,0.455,false,211232.2000000002,211229.7999999998,210472.22,210473.5,210488.903,211238.297,,,
choice,canvas.Screen,0_5_19_2,2022-07-15T14:24:08.993Z,,,,0.485,,6,1998.1059999999998,timeout,,,0.485,,0.455,,,-3,,,,,,,51,,,,,0.455,false,213220.40000000037,213219.39,211221.255,211234.40000000037,211238.297,213236.403,,151,
timeout,canvas.Screen,0_5_19_3,2022-07-15T14:24:08.995Z,,,,,,6,NaN,skipped,,,0.485,,,,,,,,,,,,,,,,,0.455,false,213222.60000000056,213219.39,,213222.40000000037,,213236.403,,,
ITI,canvas.Screen,0_5_19_4,2022-07-15T14:24:09.493Z,,,,,,6,499.47200000000885,timeout,,,0.485,,,,,,,,,,,,,,,,,0.455,false,213720.2000000002,213719.165,213219.39,213222.7999999998,213236.403,213735.875,,,
trial,flow.Sequence,0_5_19,2022-07-15T14:24:09.493Z,,,,,,6,3729.805000000022,completion,,,0.485,,,,,,,,,,,,,,,,,0.455,false,213720.60000000056,213719.165,209972.57,209974.2000000002,209989.36,213735.875,,,
fixation,canvas.Screen,0_5_20_0,2022-07-15T14:24:09.992Z,,,,,,6,499.76800000001094,timeout,,,0.545,,,,,,,,,,,,,,,,,0.515,false,214219.60000000056,214218.715,213719.165,213720.7999999998,213735.875,214235.643,,,
stimulus,canvas.Screen,0_5_20_1,2022-07-15T14:24:10.671Z,,,,,,6,660.1569999998028,response,,0.545,0.545,,,https://raw.githubusercontent.com/carero2/loss-perception/main/png/0.545blue1yellowb%3D1w%3D100v%3D20.png,https://raw.githubusercontent.com/carero2/loss-perception/main/png/0.515blue1yellowb%3D1w%3D100v%3D20.png,,,,,,,,,true,f,keypress(f),0.515,0.515,false,214898,214895.7999999998,214218.715,214219.90000000037,214235.643,214901.099,,,
choice,canvas.Screen,0_5_20_2,2022-07-15T14:24:12.657Z,,,,0.545,,6,1998.4690000000119,timeout,,,0.545,,0.515,,,9,,,,,,,60,,,,,0.515,false,216883.90000000037,216882.904,214884.776,214899.60000000056,214901.099,216899.568,,160,
timeout,canvas.Screen,0_5_20_3,2022-07-15T14:24:12.659Z,,,,,,6,NaN,skipped,,,0.545,,,,,,,,,,,,,,,,,0.515,false,216885.90000000037,216882.904,,216885.60000000056,,216899.568,,,
ITI,canvas.Screen,0_5_20_4,2022-07-15T14:24:13.156Z,,,,,,6,499.6140000000014,timeout,,,0.545,,,,,,,,,,,,,,,,,0.515,false,217383.2999999998,217382.419,216882.904,216886.10000000056,216899.568,217399.182,,,
trial,flow.Sequence,0_5_20,2022-07-15T14:24:13.156Z,,,,,,6,3646.5439999999944,completion,,,0.545,,,,,,,,,,,,,,,,,0.515,false,217383.7000000002,217382.419,213719.165,213720.7000000002,213735.875,217399.182,,,
fixation,canvas.Screen,0_5_21_0,2022-07-15T14:24:13.663Z,,,,,,18,499.27799999999115,timeout,,,0.545,,,,,,,,,,,,,,,,,0.455,true,217890.10000000056,217881.766,217382.419,217384,217399.182,217898.46,,,
stimulus,canvas.Screen,0_5_21_1,2022-07-15T14:24:14.459Z,,,,,,18,785.5400000000081,response,,0.455,0.545,,,https://raw.githubusercontent.com/carero2/loss-perception/main/png/0.455blue1yellowb%3D1w%3D100v%3D68.png,https://raw.githubusercontent.com/carero2/loss-perception/main/png/0.545blue1yellowb%3D1w%3D100v%3D68.png,,,,,,,,,true,j,keypress(j),0.545,0.455,true,218686.10000000056,218684,217881.766,217890.2999999998,217898.46,218697.906,,,
choice,canvas.Screen,0_5_21_2,2022-07-15T14:24:16.453Z,,,,0.545,,18,1997.9760000000242,timeout,,,0.545,,0.455,,,9,,,,,,,69,,,,,0.455,true,220680.40000000037,220679.325,218681.248,218689.2000000002,218697.906,220695.882,,169,
timeout,canvas.Screen,0_5_21_3,2022-07-15T14:24:16.455Z,,,,,,18,NaN,skipped,,,0.545,,,,,,,,,,,,,,,,,0.455,true,220682.5,220679.325,,220682.2000000002,,220695.882,,,
ITI,canvas.Screen,0_5_21_4,2022-07-15T14:24:16.952Z,,,,,,18,499.56399999998393,timeout,,,0.545,,,,,,,,,,,,,,,,,0.455,true,221179.7999999998,221178.778,220679.325,220682.7000000002,220695.882,221195.446,,,
trial,flow.Sequence,0_5_21,2022-07-15T14:24:16.953Z,,,,,,18,3779.5959999999905,completion,,,0.545,,,,,,,,,,,,,,,,,0.455,true,221180.10000000056,221178.778,217382.419,217383.90000000037,217399.182,221195.446,,,
fixation,canvas.Screen,0_5_22_0,2022-07-15T14:24:17.452Z,,,,,,9,499.3179999999993,timeout,,,0.485,,,,,,,,,,,,,,,,,0.53,false,221679.40000000037,221678.399,221178.778,221180.2999999998,221195.446,221694.764,,,
stimulus,canvas.Screen,0_5_22_1,2022-07-15T14:24:18.386Z,,,,,,9,915.9360000001907,response,,0.485,0.485,,,https://raw.githubusercontent.com/carero2/loss-perception/main/png/0.485blue1yellowb%3D1w%3D100v%3D19.png,https://raw.githubusercontent.com/carero2/loss-perception/main/png/0.53blue1yellowb%3D1w%3D100v%3D19.png,,,,,,,,,true,j,keypress(j),0.53,0.53,false,222613.2000000002,222610.7000000002,221678.399,221679.60000000056,221694.764,222627.25,,,
choice,canvas.Screen,0_5_22_2,2022-07-15T14:24:20.383Z,,,,0.53,,9,1998.3919999999925,timeout,,,0.485,,0.485,,,6,,,,,,,75,,,,,0.53,false,224610.10000000056,224609.016,222610.863,222616.7999999998,222627.25,224625.642,,175,
timeout,canvas.Screen,0_5_22_3,2022-07-15T14:24:20.385Z,,,,,,9,NaN,skipped,,,0.485,,,,,,,,,,,,,,,,,0.53,false,224612.2999999998,224609.016,,224612,,224625.642,,,
ITI,canvas.Screen,0_5_22_4,2022-07-15T14:24:20.882Z,,,,,,9,499.39300000001094,timeout,,,0.485,,,,,,,,,,,,,,,,,0.53,false,225109.60000000056,225108.461,224609.016,224612.5,224625.642,225125.035,,,
trial,flow.Sequence,0_5_22,2022-07-15T14:24:20.883Z,,,,,,9,3913.015000000014,completion,,,0.485,,,,,,,,,,,,,,,,,0.53,false,225110,225108.461,221178.778,221180.2999999998,221195.446,225125.035,,,
fixation,canvas.Screen,0_5_23_0,2022-07-15T14:24:21.381Z,,,,,,12,499.5989999999874,timeout,,,0.53,,,,,,,,,,,,,,,,,0.47,false,225608.7000000002,225607.799,225108.461,225110.2000000002,225125.035,225624.634,,,
stimulus,canvas.Screen,0_5_23_1,2022-07-15T14:24:22.038Z,,,,,,12,638.6659999998228,response,,0.53,0.53,,,https://raw.githubusercontent.com/carero2/loss-perception/main/png/0.53blue1yellowb%3D1w%3D100v%3D68.png,https://raw.githubusercontent.com/carero2/loss-perception/main/png/0.47blue1yellowb%3D1w%3D100v%3D68.png,,,,,,,,,true,f,keypress(f),0.47,0.47,false,226265.10000000056,226263.2999999998,225607.799,225608.90000000037,225624.634,226273.845,,,
choice,canvas.Screen,0_5_23_2,2022-07-15T14:24:24.029Z,,,,0.53,,12,1998.3060000000114,timeout,,,0.53,,0.47,,,6,,,,,,,81,,,,,0.47,false,228256.5,228255.348,226257.396,226268.5,226273.845,228272.151,,181,
timeout,canvas.Screen,0_5_23_3,2022-07-15T14:24:24.032Z,,,,,,12,NaN,skipped,,,0.53,,,,,,,,,,,,,,,,,0.47,false,228259,228255.348,,228258.90000000037,,228272.151,,,
ITI,canvas.Screen,0_5_23_4,2022-07-15T14:24:24.529Z,,,,,,12,499.33599999998114,timeout,,,0.53,,,,,,,,,,,,,,,,,0.47,false,228756.2000000002,228755.134,228255.348,228259,228272.151,228771.487,,,
trial,flow.Sequence,0_5_23,2022-07-15T14:24:24.529Z,,,,,,12,3630.0989999999874,completion,,,0.53,,,,,,,,,,,,,,,,,0.47,false,228756.60000000056,228755.134,225108.461,225110.2000000002,225125.035,228771.487,,,
pratice,flow.Loop,0_5,2022-07-15T14:24:24.530Z,,,,,,,95261.187,completion,,,,,,,,,,,,,,,,,,,,,,228757,228755.134,133477.123,133488.2000000002,133493.947,228771.487,,,
show amount,html.Screen,0_6,2022-07-15T14:24:38.809Z,,,,,,,14259.213000000193,response,,,,,,,,,,,,,,,,,Continue,click #Continue,,,,243035.90000000037,243030.7000000002,228755.134,228758.5,228771.487,243041.482,,,
first block,canvas.Screen,0_7,2022-07-15T14:24:43.629Z,,,,,,,4813.61800000057,response,,,,,,,,,,,,,,,,,space,keypress(Space),,,,247856.5,247855.10000000056,243025.259,243036,243041.482,247870.387,,,
fixation,canvas.Screen,0_8_0_0,2022-07-15T14:24:44.128Z,,,,,,6,832.7570000000123,timeout,,,0.485,,,,,,,,,,,,,,,,,0.455,true,248354.7999999998,248353.488,247855.723,247856.7999999998,247870.387,248703.144,,,
stimulus,canvas.Screen,0_8_0_1,2022-07-15T14:24:45.381Z,,,,,,6,903.9560000005586,response,,0.455,0.485,,,https://raw.githubusercontent.com/carero2/loss-perception/main/png/0.455blue1yellowb%3D1w%3D100v%3D98.png,https://raw.githubusercontent.com/carero2/loss-perception/main/png/0.485blue1yellowb%3D1w%3D100v%3D98.png,,,,,,,,,true,j,keypress(j),0.485,0.455,true,249608.5,249607.10000000056,248353.488,248715.40000000037,248703.144,249647.822,,,
choice,canvas.Screen,0_8_0_2,2022-07-15T14:24:46.408Z,,,,0.485,,6,1003.570000000007,timeout,,,0.485,,0.455,,,-3,-3,,,,,,,,,,,0.455,true,250635.7000000002,250634.683,249602.543,249617.5,249647.822,250651.392,97,,
ITI,canvas.Screen,0_8_0_3,2022-07-15T14:24:46.908Z,,,2493,,,6,500.10700000001816,timeout,,,0.485,,,,,,,,,,,,,,,,,0.455,true,251135.10000000056,251134.115,250634.683,250636,250651.392,251151.499,,,
trial,flow.Sequence,0_8_0,2022-07-15T14:24:46.908Z,,,,,,6,3263.728000000003,completion,,,0.485,,,,,,,,,,,,,,,,,0.455,true,251135.60000000056,251134.115,247855.723,247856.7000000002,247870.387,251151.499,,,
fixation,canvas.Screen,0_8_1_0,2022-07-15T14:24:47.407Z,,,,,,6,798.627999999997,timeout,,,0.545,,,,,,,,,,,,,,,,,0.515,true,251634.60000000056,251633.619,251134.115,251135.7999999998,251151.499,251950.127,,,
stimulus,canvas.Screen,0_8_1_1,2022-07-15T14:24:49.347Z,,,,,,6,1622.0730000001786,response,,0.515,0.545,,,https://raw.githubusercontent.com/carero2/loss-perception/main/png/0.515blue1yellowb%3D1w%3D100v%3D71.png,https://raw.githubusercontent.com/carero2/loss-perception/main/png/0.545blue1yellowb%3D1w%3D100v%3D71.png,,,,,,,,,true,j,keypress(j),0.545,0.515,true,253574,253572.2000000002,251633.619,251962.7000000002,251950.127,253598.308,,,
choice,canvas.Screen,0_8_1_2,2022-07-15T14:24:50.355Z,,,,0.545,,6,999.3580000000075,timeout,,,0.545,,0.515,,,9,6,,,,,,,,,,,0.515,true,254581.7999999998,254580.808,253581.402,253593.7000000002,253598.308,254597.666,106,,
ITI,canvas.Screen,0_8_1_3,2022-07-15T14:24:50.854Z,,,2379,,,6,500.07200000001467,timeout,,,0.545,,,,,,,,,,,,,,,,,0.515,true,255081.7000000002,255080.55,254580.808,254582.10000000056,254597.666,255097.738,,,
trial,flow.Sequence,0_8_1,2022-07-15T14:24:50.855Z,,,,,,6,3929.0509999999776,completion,,,0.545,,,,,,,,,,,,,,,,,0.515,true,255082.2000000002,255080.55,251134.115,251135.7000000002,251151.499,255097.738,,,
fixation,canvas.Screen,0_8_2_0,2022-07-15T14:24:51.354Z,,,,,,4,798.6979999999749,timeout,,,0.49,,,,,,,,,,,,,,,,,0.47,true,255581,255580.064,255080.55,255082.2999999998,255097.738,255896.436,,,
stimulus,canvas.Screen,0_8_2_1,2022-07-15T14:24:52.789Z,,,,,,4,1118.4640000003856,response,,0.47,0.49,,,https://raw.githubusercontent.com/carero2/loss-perception/main/png/0.47blue1yellowb%3D1w%3D100v%3D29.png,https://raw.githubusercontent.com/carero2/loss-perception/main/png/0.49blue1yellowb%3D1w%3D100v%3D29.png,,,,,,,,,true,j,keypress(j),0.49,0.47,true,257016.60000000056,257014.90000000037,255580.064,255910.2000000002,255896.436,257028.542,,,
choice,canvas.Screen,0_8_2_2,2022-07-15T14:24:53.785Z,,,,0.49,,4,999.0679999999993,timeout,,,0.49,,0.47,,,-2,4,,,,,,,,,,,0.47,true,258012.2999999998,258011.143,257011.662,257026.2999999998,257028.542,258027.61,104,,
ITI,canvas.Screen,0_8_2_3,2022-07-15T14:24:54.284Z,,,2357,,,4,499.4110000000219,timeout,,,0.49,,,,,,,,,,,,,,,,,0.47,true,258511.60000000056,258510.661,258011.143,258012.60000000056,258027.61,258527.021,,,
trial,flow.Sequence,0_8_2,2022-07-15T14:24:54.285Z,,,,,,4,3412.9229999999807,completion,,,0.49,,,,,,,,,,,,,,,,,0.47,true,258512.10000000056,258510.661,255080.55,255082.2999999998,255097.738,258527.021,,,
fixation,canvas.Screen,0_8_3_0,2022-07-15T14:24:54.784Z,,,,,,2,733.0119999999879,timeout,,,0.515,,,,,,,,,,,,,,,,,0.505,true,259010.90000000037,259009.941,258510.661,258512.2000000002,258527.021,259260.033,,,
stimulus,canvas.Screen,0_8_3_1,2022-07-15T14:24:55.765Z,,,,,,2,730.067000000563,response,,0.505,0.515,,,https://raw.githubusercontent.com/carero2/loss-perception/main/png/0.505blue1yellowb%3D1w%3D100v%3D100.png,https://raw.githubusercontent.com/carero2/loss-perception/main/png/0.515blue1yellowb%3D1w%3D100v%3D100.png,,,,,,,,,true,f,keypress(f),0.515,0.505,true,259992.10000000056,259990.10000000056,259009.941,259273,259260.033,260026.925,,,
choice,canvas.Screen,0_8_3_2,2022-07-15T14:24:56.782Z,,,,0.505,,2,998.1130000000121,timeout,,,0.515,,0.515,,,1,5,,,,,,,,,,,0.505,true,261009.5,261008.342,260009.242,260012.2000000002,260026.925,261025.038,105,,
ITI,canvas.Screen,0_8_3_3,2022-07-15T14:24:57.282Z,,,2660,,,2,499.4860000000044,timeout,,,0.515,,,,,,,,,,,,,,,,,0.505,true,261508.90000000037,261507.874,261008.342,261009.7999999998,261025.038,261524.524,,,
trial,flow.Sequence,0_8_3,2022-07-15T14:24:57.282Z,,,,,,2,2980.853000000003,completion,,,0.515,,,,,,,,,,,,,,,,,0.505,true,261509.2999999998,261507.874,258510.661,258512.10000000056,258527.021,261524.524,,,
fixation,canvas.Screen,0_8_4_0,2022-07-15T14:24:57.781Z,,,,,,6,815.8999999999942,timeout,,,0.515,,,,,,,,,,,,,,,,,0.485,true,262008.40000000037,262007.318,261507.874,261509.40000000037,261524.524,262340.424,,,
stimulus,canvas.Screen,0_8_4_1,2022-07-15T14:24:59.410Z,,,,,,6,1294.7760000001872,response,,0.485,0.515,,,https://raw.githubusercontent.com/carero2/loss-perception/main/png/0.485blue1yellowb%3D1w%3D100v%3D6.png,https://raw.githubusercontent.com/carero2/loss-perception/main/png/0.515blue1yellowb%3D1w%3D100v%3D6.png,,,,,,,,,true,f,keypress(f),0.515,0.485,true,263637.4000000004,263635.2000000002,262007.318,262353.7000000002,262340.424,263655.76,,,
choice,canvas.Screen,0_8_4_2,2022-07-15T14:25:00.412Z,,,,0.485,,6,999.170999999973,timeout,,,0.515,,0.515,,,-3,2,,,,,,,,,,,0.485,true,264639.2000000002,264638.275,263639.404,263648,263655.76,264654.931,102,,
ITI,canvas.Screen,0_8_4_3,2022-07-15T14:25:00.912Z,,,2496,,,6,499.98100000002887,timeout,,,0.515,,,,,,,,,,,,,,,,,0.485,true,265138.9000000004,265137.821,264638.275,264639.5,264654.931,265154.912,,,
trial,flow.Sequence,0_8_4,2022-07-15T14:25:00.912Z,,,,,,6,3613.2969999999914,completion,,,0.515,,,,,,,,,,,,,,,,,0.485,true,265139.2999999998,265137.821,261507.874,261509.40000000037,261524.524,265154.912,,,
fixation,canvas.Screen,0_8_5_0,2022-07-15T14:25:01.411Z,,,,,,4,748.8449999999721,timeout,,,0.51,,,,,,,,,,,,,,,,,0.49,true,265638.4000000004,265637.338,265137.821,265139.60000000056,265154.912,265903.757,,,
stimulus,canvas.Screen,0_8_5_1,2022-07-15T14:25:02.754Z,,,,,,4,1075.6430000003893,response,,0.49,0.51,,,https://raw.githubusercontent.com/carero2/loss-perception/main/png/0.49blue1yellowb%3D1w%3D100v%3D7.png,https://raw.githubusercontent.com/carero2/loss-perception/main/png/0.51blue1yellowb%3D1w%3D100v%3D7.png,,,,,,,,,true,f,keypress(f),0.51,0.49,true,266981.2999999998,266979.4000000004,265637.338,265913.2000000002,265903.757,267002.441,,,
choice,canvas.Screen,0_8_5_2,2022-07-15T14:25:03.759Z,,,,0.49,,4,999.2170000000042,timeout,,,0.51,,0.51,,,-2,0,,,,,,,,,,,0.49,true,267986.4000000004,267985.183,266985.618,266999.2000000002,267002.441,268001.658,100,,
ITI,canvas.Screen,0_8_5_3,2022-07-15T14:25:04.259Z,,,2661,,,4,499.9880000000121,timeout,,,0.51,,,,,,,,,,,,,,,,,0.49,true,268485.9000000004,268484.779,267985.183,267986.7000000002,268001.658,268501.646,,,
trial,flow.Sequence,0_8_5,2022-07-15T14:25:04.259Z,,,,,,4,3329.8669999999693,completion,,,0.51,,,,,,,,,,,,,,,,,0.49,true,268486.2999999998,268484.779,265137.821,265139.5,265154.912,268501.646,,,
fixation,canvas.Screen,0_8_6_0,2022-07-15T14:25:04.758Z,,,,,,4,748.869000000006,timeout,,,0.53,,,,,,,,,,,,,,,,,0.51,false,268985.2000000002,268984.078,268484.779,268486.4000000004,268501.646,269250.515,,,
stimulus,canvas.Screen,0_8_6_1,2022-07-15T14:25:05.897Z,,,,,,4,871.8850000003586,response,,0.53,0.53,,,https://raw.githubusercontent.com/carero2/loss-perception/main/png/0.53blue1yellowb%3D1w%3D100v%3D44.png,https://raw.githubusercontent.com/carero2/loss-perception/main/png/0.51blue1yellowb%3D1w%3D100v%3D44.png,,,,,,,,,true,f,keypress(f),0.51,0.51,false,270124.2000000002,270122.4000000004,268984.078,269263.2999999998,269250.515,270149.519,,,
choice,canvas.Screen,0_8_6_2,2022-07-15T14:25:06.906Z,,,,0.53,,4,999.3790000000154,timeout,,,0.53,,0.51,,,6,6,,,,,,,,,,,0.51,false,271133.4000000004,271132.312,270132.908,270144.60000000056,270149.519,271148.898,106,,
ITI,canvas.Screen,0_8_6_3,2022-07-15T14:25:07.406Z,,,2443,,,4,499.65500000002794,timeout,,,0.53,,,,,,,,,,,,,,,,,0.51,false,271632.7999999998,271631.706,271132.312,271133.7000000002,271148.898,271648.553,,,
trial,flow.Sequence,0_8_6,2022-07-15T14:25:07.406Z,,,,,,4,3130.0599999999977,completion,,,0.53,,,,,,,,,,,,,,,,,0.51,false,271633.2999999998,271631.706,268484.779,268486.4000000004,268501.646,271648.553,,,
fixation,canvas.Screen,0_8_7_0,2022-07-15T14:25:07.905Z,,,,,,2,815.73199999996,timeout,,,0.505,,,,,,,,,,,,,,,,,0.495,false,272132.5,272131.216,271631.706,271633.5,271648.553,272464.285,,,
stimulus,canvas.Screen,0_8_7_1,2022-07-15T14:25:09.303Z,,,,,,2,1066.5149999998393,response,,0.505,0.505,,,https://raw.githubusercontent.com/carero2/loss-perception/main/png/0.505blue1yellowb%3D1w%3D100v%3D65.png,https://raw.githubusercontent.com/carero2/loss-perception/main/png/0.495blue1yellowb%3D1w%3D100v%3D65.png,,,,,,,,,true,f,keypress(f),0.495,0.495,false,273532.60000000056,273530.7999999998,272131.216,272473.60000000056,272464.285,273563.353,,,
choice,canvas.Screen,0_8_7_2,2022-07-15T14:25:10.317Z,,,,0.505,,2,998.7210000000196,timeout,,,0.505,,0.495,,,1,7,,,,,,,,,,,0.495,false,274546.60000000056,274545.678,273546.564,273551.60000000056,273563.353,274562.074,107,,
ITI,canvas.Screen,0_8_7_3,2022-07-15T14:25:10.816Z,,,2569,,,2,500.4459999999963,timeout,,,0.505,,,,,,,,,,,,,,,,,0.495,false,275046.2999999998,275045.242,274545.678,274546.9000000004,274562.074,275062.52,,,
trial,flow.Sequence,0_8_7,2022-07-15T14:25:10.817Z,,,,,,2,3396.689000000013,completion,,,0.505,,,,,,,,,,,,,,,,,0.495,false,275047,275045.242,271631.706,271633.4000000004,271648.553,275062.52,,,
fixation,canvas.Screen,0_8_8_0,2022-07-15T14:25:11.316Z,,,,,,2,748.6570000000065,timeout,,,0.495,,,,,,,,,,,,,,,,,0.485,false,275546.10000000056,275544.878,275045.242,275047.2000000002,275062.52,275811.177,,,
stimulus,canvas.Screen,0_8_8_1,2022-07-15T14:25:13.406Z,,,,,,2,1823.0230000001611,response,,0.495,0.495,,,https://raw.githubusercontent.com/carero2/loss-perception/main/png/0.495blue1yellowb%3D1w%3D100v%3D60.png,https://raw.githubusercontent.com/carero2/loss-perception/main/png/0.485blue1yellowb%3D1w%3D100v%3D60.png,,,,,,,,,true,f,keypress(f),0.485,0.485,false,277636.10000000056,277634.2000000002,275544.878,275818,275811.177,277659.162,,,
choice,canvas.Screen,0_8_8_2,2022-07-15T14:25:14.413Z,,,,0.495,,2,999.3630000000121,timeout,,,0.495,,0.485,,,-1,6,,,,,,,,,,,0.485,false,278642.9000000004,278641.854,277643.153,277654.4000000004,277659.162,278658.525,106,,
ITI,canvas.Screen,0_8_8_3,2022-07-15T14:25:14.913Z,,,2846,,,2,499.3289999999688,timeout,,,0.495,,,,,,,,,,,,,,,,,0.485,false,279142.5,279141.407,278641.854,278643.10000000056,278658.525,279157.854,,,
trial,flow.Sequence,0_8_8,2022-07-15T14:25:14.913Z,,,,,,2,4078.886999999988,completion,,,0.495,,,,,,,,,,,,,,,,,0.485,false,279143,279141.407,275045.242,275047.2000000002,275062.52,279157.854,,,
fixation,canvas.Screen,0_8_9_0,2022-07-15T14:25:15.412Z,,,,,,6,749.5709999999963,timeout,,,0.545,,,,,,,,,,,,,,,,,0.515,false,279642.2000000002,279640.968,279141.407,279143.2000000002,279157.854,279907.425,,,
stimulus,canvas.Screen,0_8_9_1,2022-07-15T14:25:16.335Z,,,,,,6,655.6750000005704,response,,0.545,0.545,,,https://raw.githubusercontent.com/carero2/loss-perception/main/png/0.545blue1yellowb%3D1w%3D100v%3D82.png,https://raw.githubusercontent.com/carero2/loss-perception/main/png/0.515blue1yellowb%3D1w%3D100v%3D82.png,,,,,,,,,true,f,keypress(f),0.515,0.515,false,280564.4000000004,280563.10000000056,279640.968,279917.7000000002,279907.425,280589.806,,,
choice,canvas.Screen,0_8_9_2,2022-07-15T14:25:17.344Z,,,,0.545,,6,999.2960000000312,timeout,,,0.545,,0.515,,,9,15,,,,,,,,,,,0.515,false,281573.5,281572.446,280573.202,280586.7999999998,280589.806,281589.102,115,,
ITI,canvas.Screen,0_8_9_3,2022-07-15T14:25:17.843Z,,,2198,,,6,499.48300000000745,timeout,,,0.545,,,,,,,,,,,,,,,,,0.515,false,282072.7999999998,282071.746,281572.446,281573.7000000002,281589.102,282088.585,,,
trial,flow.Sequence,0_8_9,2022-07-15T14:25:17.843Z,,,,,,6,2913.8919999999925,completion,,,0.545,,,,,,,,,,,,,,,,,0.515,false,282073.2999999998,282071.746,279141.407,279143.10000000056,279157.854,282088.585,,,
fixation,canvas.Screen,0_8_10_0,2022-07-15T14:25:18.343Z,,,,,,6,732.7010000000009,timeout,,,0.515,,,,,,,,,,,,,,,,,0.485,false,282572.60000000056,282571.535,282071.746,282073.60000000056,282088.585,282821.286,,,
stimulus,canvas.Screen,0_8_10_1,2022-07-15T14:25:19.636Z,,,,,,6,1043.7139999999781,response,,0.515,0.515,,,https://raw.githubusercontent.com/carero2/loss-perception/main/png/0.515blue1yellowb%3D1w%3D100v%3D68.png,https://raw.githubusercontent.com/carero2/loss-perception/main/png/0.485blue1yellowb%3D1w%3D100v%3D68.png,,,,,,,,,true,f,keypress(f),0.485,0.485,false,283866.2999999998,283865,282571.535,282827.4000000004,282821.286,283887.042,,,
choice,canvas.Screen,0_8_10_2,2022-07-15T14:25:20.640Z,,,,0.515,,6,999.0709999999963,timeout,,,0.515,,0.485,,,3,18,,,,,,,,,,,0.485,false,284870.2999999998,284869.378,283869.948,283876.5,283887.042,284886.113,118,,
ITI,canvas.Screen,0_8_10_3,2022-07-15T14:25:21.140Z,,,2313,,,6,499.25299999996787,timeout,,,0.515,,,,,,,,,,,,,,,,,0.485,false,285369.7999999998,285368.811,284869.378,284870.7999999998,284886.113,285385.366,,,
trial,flow.Sequence,0_8_10,2022-07-15T14:25:21.140Z,,,,,,6,3280.225999999966,completion,,,0.515,,,,,,,,,,,,,,,,,0.485,false,285370.2000000002,285368.811,282071.746,282073.4000000004,282088.585,285385.366,,,
fixation,canvas.Screen,0_8_11_0,2022-07-15T14:25:21.639Z,,,,,,2,766.1529999999912,timeout,,,0.515,,,,,,,,,,,,,,,,,0.505,false,285869.2000000002,285868.188,285368.811,285370.2999999998,285385.366,286151.519,,,
stimulus,canvas.Screen,0_8_11_1,2022-07-15T14:25:22.675Z,,,,,,2,750.7809999998426,response,,0.515,0.515,,,https://raw.githubusercontent.com/carero2/loss-perception/main/png/0.515blue1yellowb%3D1w%3D100v%3D73.png,https://raw.githubusercontent.com/carero2/loss-perception/main/png/0.505blue1yellowb%3D1w%3D100v%3D73.png,,,,,,,,,true,f,keypress(f),0.505,0.505,false,286904.5,286902.2999999998,285868.188,286160.2999999998,286151.519,286917.168,,,
choice,canvas.Screen,0_8_11_2,2022-07-15T14:25:23.671Z,,,,0.515,,2,999.1689999999944,timeout,,,0.515,,0.505,,,3,21,,,,,,,,,,,0.505,false,287900.9000000004,287899.881,286900.826,286915.7999999998,286917.168,287916.337,121,,
ITI,canvas.Screen,0_8_11_3,2022-07-15T14:25:24.171Z,,,2863,,,2,500.5590000000084,timeout,,,0.515,,,,,,,,,,,,,,,,,0.505,false,288400.5,288399.426,287899.881,287901.2000000002,287916.337,288416.896,,,
trial,flow.Sequence,0_8_11,2022-07-15T14:25:24.171Z,,,,,,2,3014.0599999999977,completion,,,0.515,,,,,,,,,,,,,,,,,0.505,false,288400.9000000004,288399.426,285368.811,285370.2999999998,285385.366,288416.896,,,
fixation,canvas.Screen,0_8_12_0,2022-07-15T14:25:24.670Z,,,,,,4,948.2749999999651,timeout,,,0.51,,,,,,,,,,,,,,,,,0.49,true,288900.2999999998,288899.099,288399.426,288401.10000000056,288416.896,289365.171,,,
stimulus,canvas.Screen,0_8_12_1,2022-07-15T14:25:27.378Z,,,,,,4,2239.1289999998407,response,,0.49,0.51,,,https://raw.githubusercontent.com/carero2/loss-perception/main/png/0.49blue1yellowb%3D1w%3D100v%3D6.png,https://raw.githubusercontent.com/carero2/loss-perception/main/png/0.51blue1yellowb%3D1w%3D100v%3D6.png,,,,,,,,,true,f,keypress(f),0.51,0.49,true,291607.7000000002,291604.2999999998,288899.099,289373.60000000056,289365.171,291629.847,,,
choice,canvas.Screen,0_8_12_2,2022-07-15T14:25:28.383Z,,,,0.49,,4,998.7529999999679,timeout,,,0.51,,0.51,,,-2,19,,,,,,,,,,,0.49,true,292613.4000000004,292612.182,291613.511,291617.4000000004,291629.847,292628.6,119,,
ITI,canvas.Screen,0_8_12_3,2022-07-15T14:25:28.883Z,,,2651,,,4,500.1469999999972,timeout,,,0.51,,,,,,,,,,,,,,,,,0.49,true,293112.7999999998,293111.678,292612.182,292613.7000000002,292628.6,293128.747,,,
trial,flow.Sequence,0_8_12,2022-07-15T14:25:28.883Z,,,,,,4,4694.7820000000065,completion,,,0.51,,,,,,,,,,,,,,,,,0.49,true,293113.2000000002,293111.678,288399.426,288401.10000000056,288416.896,293128.747,,,
fixation,canvas.Screen,0_8_13_0,2022-07-15T14:25:29.382Z,,,,,,2,815.5320000000065,timeout,,,0.505,,,,,,,,,,,,,,,,,0.495,false,293612.2000000002,293611.221,293111.678,293113.4000000004,293128.747,293944.279,,,
stimulus,canvas.Screen,0_8_13_1,2022-07-15T14:25:35.300Z,,,,,,2,5579.621000000392,response,,0.505,0.505,,,https://raw.githubusercontent.com/carero2/loss-perception/main/png/0.505blue1yellowb%3D1w%3D100v%3D49.png,https://raw.githubusercontent.com/carero2/loss-perception/main/png/0.495blue1yellowb%3D1w%3D100v%3D49.png,,,,,,,,,true,f,keypress(f),0.495,0.495,false,299529.7000000002,299523.9000000004,293611.221,293957.2000000002,293944.279,299555.844,,,
choice,canvas.Screen,0_8_13_2,2022-07-15T14:25:36.309Z,,,,0.505,,2,998.7210000000196,timeout,,,0.505,,0.495,,,1,20,,,,,,,,,,,0.495,false,300539.10000000056,300538.083,299536.762,299547.2999999998,299555.844,300554.565,120,,
ITI,canvas.Screen,0_8_13_3,2022-07-15T14:25:36.809Z,,,2339,,,2,499.98499999998603,timeout,,,0.505,,,,,,,,,,,,,,,,,0.495,false,301038.7000000002,301037.615,300538.083,300539.4000000004,300554.565,301054.55,,,
trial,flow.Sequence,0_8_13,2022-07-15T14:25:36.809Z,,,,,,2,7908.868000000017,completion,,,0.505,,,,,,,,,,,,,,,,,0.495,false,301039.10000000056,301037.615,293111.678,293113.4000000004,293128.747,301054.55,,,
fixation,canvas.Screen,0_8_14_0,2022-07-15T14:25:37.308Z,,,,,,4,832.274000000034,timeout,,,0.53,,,,,,,,,,,,,,,,,0.51,true,301538,301537.046,301037.615,301039.2999999998,301054.55,301886.824,,,
stimulus,canvas.Screen,0_8_14_1,2022-07-15T14:25:38.569Z,,,,,,4,910.4759999997914,response,,0.51,0.53,,,https://raw.githubusercontent.com/carero2/loss-perception/main/png/0.51blue1yellowb%3D1w%3D100v%3D12.png,https://raw.githubusercontent.com/carero2/loss-perception/main/png/0.53blue1yellowb%3D1w%3D100v%3D12.png,,,,,,,,,true,f,keypress(f),0.53,0.51,true,302799,302797.2999999998,301537.046,301900.10000000056,301886.824,302836.123,,,
choice,canvas.Screen,0_8_14_2,2022-07-15T14:25:39.589Z,,,,0.51,,4,998.8819999999832,timeout,,,0.53,,0.53,,,2,22,,,,,,,,,,,0.51,true,303819.10000000056,303818.18,302819.009,302822.9000000004,302836.123,303835.005,122,,
ITI,canvas.Screen,0_8_14_3,2022-07-15T14:25:40.089Z,,,2415,,,4,499.52999999996973,timeout,,,0.53,,,,,,,,,,,,,,,,,0.51,true,304318.7999999998,304317.871,303818.18,303819.4000000004,303835.005,304334.535,,,
trial,flow.Sequence,0_8_14,2022-07-15T14:25:40.089Z,,,,,,4,3263.3209999999963,completion,,,0.53,,,,,,,,,,,,,,,,,0.51,true,304319.2000000002,304317.871,301037.615,301039.2000000002,301054.55,304334.535,,,
fixation,canvas.Screen,0_8_15_0,2022-07-15T14:25:40.589Z,,,,,,2,732.6970000000438,timeout,,,0.495,,,,,,,,,,,,,,,,,0.485,true,304818.60000000056,304817.43,304317.871,304319.4000000004,304334.535,305067.232,,,
stimulus,canvas.Screen,0_8_15_1,2022-07-15T14:25:41.769Z,,,,,,2,929.4680000001681,response,,0.485,0.495,,,https://raw.githubusercontent.com/carero2/loss-perception/main/png/0.485blue1yellowb%3D1w%3D100v%3D12.png,https://raw.githubusercontent.com/carero2/loss-perception/main/png/0.495blue1yellowb%3D1w%3D100v%3D12.png,,,,,,,,,true,f,keypress(f),0.495,0.485,true,305998.5,305996.7000000002,304817.43,305079.7000000002,305067.232,306016.217,,,
choice,canvas.Screen,0_8_15_2,2022-07-15T14:25:42.770Z,,,,0.485,,2,1000.1140000000014,timeout,,,0.495,,0.495,,,-3,19,,,,,,,,,,,0.485,true,306999.7000000002,306998.709,305999.661,306005.5,306016.217,307016.331,119,,
ITI,canvas.Screen,0_8_15_3,2022-07-15T14:25:43.270Z,,,2712,,,2,498.9230000000098,timeout,,,0.495,,,,,,,,,,,,,,,,,0.485,true,307499.5,307498.374,306998.709,307000,307016.331,307515.254,,,
trial,flow.Sequence,0_8_15,2022-07-15T14:25:43.270Z,,,,,,2,3163.8390000000363,completion,,,0.495,,,,,,,,,,,,,,,,,0.485,true,307499.9000000004,307498.374,304317.871,304319.4000000004,304334.535,307515.254,,,
fixation,canvas.Screen,0_8_16_0,2022-07-15T14:25:43.769Z,,,,,,6,715.6399999999558,timeout,,,0.485,,,,,,,,,,,,,,,,,0.455,false,307998.7999999998,307997.775,307498.374,307500.10000000056,307515.254,308230.894,,,
stimulus,canvas.Screen,0_8_16_1,2022-07-15T14:25:45.244Z,,,,,,6,1240.1060000000289,response,,0.485,0.485,,,https://raw.githubusercontent.com/carero2/loss-perception/main/png/0.485blue1yellowb%3D1w%3D100v%3D90.png,https://raw.githubusercontent.com/carero2/loss-perception/main/png/0.455blue1yellowb%3D1w%3D100v%3D90.png,,,,,,,,,true,f,keypress(f),0.455,0.455,false,309473.5,309471,307997.775,308240.60000000056,308230.894,309496.104,,,
choice,canvas.Screen,0_8_16_2,2022-07-15T14:25:46.250Z,,,,0.485,,6,999.4789999999921,timeout,,,0.485,,0.455,,,-3,16,,,,,,,,,,,0.455,false,310479.60000000056,310478.624,309480.013,309492,309496.104,310495.583,116,,
ITI,canvas.Screen,0_8_16_3,2022-07-15T14:25:46.750Z,,,2012,,,6,499.2260000000242,timeout,,,0.485,,,,,,,,,,,,,,,,,0.455,false,310979.4000000004,310978.339,310478.624,310479.9000000004,310495.583,310994.809,,,
trial,flow.Sequence,0_8_16,2022-07-15T14:25:46.750Z,,,,,,6,3463.0849999999627,completion,,,0.485,,,,,,,,,,,,,,,,,0.455,false,310979.7999999998,310978.339,307498.374,307500.10000000056,307515.254,310994.809,,,
fixation,canvas.Screen,0_8_17_0,2022-07-15T14:25:47.249Z,,,,,,4,832.7239999999874,timeout,,,0.49,,,,,,,,,,,,,,,,,0.47,false,311479,311477.913,310978.339,310980,310994.809,311827.533,,,
stimulus,canvas.Screen,0_8_17_1,2022-07-15T14:25:48.445Z,,,,,,4,845.6670000001905,response,,0.49,0.49,,,https://raw.githubusercontent.com/carero2/loss-perception/main/png/0.49blue1yellowb%3D1w%3D100v%3D63.png,https://raw.githubusercontent.com/carero2/loss-perception/main/png/0.47blue1yellowb%3D1w%3D100v%3D63.png,,,,,,,,,true,f,keypress(f),0.47,0.47,false,312675,312673.2000000002,311477.913,311839.7000000002,311827.533,312710.213,,,
choice,canvas.Screen,0_8_17_2,2022-07-15T14:25:49.464Z,,,,0.49,,4,998.7189999999828,timeout,,,0.49,,0.47,,,-2,14,,,,,,,,,,,0.47,false,313693.4000000004,313692.346,312693.131,312698,312710.213,313708.932,114,,
ITI,canvas.Screen,0_8_17_3,2022-07-15T14:25:49.963Z,,,2246,,,4,499.454000000027,timeout,,,0.49,,,,,,,,,,,,,,,,,0.47,false,314193.2000000002,314192.006,313692.346,313693.7000000002,313708.932,314208.386,,,
trial,flow.Sequence,0_8_17,2022-07-15T14:25:49.964Z,,,,,,4,3197.1969999999856,completion,,,0.49,,,,,,,,,,,,,,,,,0.47,false,314193.7999999998,314192.006,310978.339,310979.9000000004,310994.809,314208.386,,,
fixation,canvas.Screen,0_8_18_0,2022-07-15T14:25:50.463Z,,,,,,6,749.545999999973,timeout,,,0.485,,,,,,,,,,,,,,,,,0.455,false,314693.10000000056,314691.651,314192.006,314194.10000000056,314208.386,314957.932,,,
stimulus,canvas.Screen,0_8_18_1,2022-07-15T14:25:51.591Z,,,,,,6,860.8679999998421,response,,0.485,0.485,,,https://raw.githubusercontent.com/carero2/loss-perception/main/png/0.485blue1yellowb%3D1w%3D100v%3D52.png,https://raw.githubusercontent.com/carero2/loss-perception/main/png/0.455blue1yellowb%3D1w%3D100v%3D52.png,,,,,,,,,true,f,keypress(f),0.455,0.455,false,315821.10000000056,315818.7999999998,314691.651,314970.60000000056,314957.932,315840.434,,,
choice,canvas.Screen,0_8_18_2,2022-07-15T14:25:52.594Z,,,,0.485,,6,998.9419999999809,timeout,,,0.485,,0.455,,,-3,11,,,,,,,,,,,0.455,false,316823.9000000004,316822.864,315823.582,315829,315840.434,316839.376,111,,
ITI,canvas.Screen,0_8_18_3,2022-07-15T14:25:53.093Z,,,2534,,,6,499.5320000000065,timeout,,,0.485,,,,,,,,,,,,,,,,,0.455,false,317323.2000000002,317322.26,316822.864,316824.10000000056,316839.376,317338.908,,,
trial,flow.Sequence,0_8_18,2022-07-15T14:25:53.094Z,,,,,,6,3113.8740000000107,completion,,,0.485,,,,,,,,,,,,,,,,,0.455,false,317323.60000000056,317322.26,314192.006,314194,314208.386,317338.908,,,
fixation,canvas.Screen,0_8_19_0,2022-07-15T14:25:53.593Z,,,,,,6,732.8099999999977,timeout,,,0.545,,,,,,,,,,,,,,,,,0.515,true,317822.9000000004,317821.936,317322.26,317323.7999999998,317338.908,318071.718,,,
stimulus,canvas.Screen,0_8_19_1,2022-07-15T14:25:54.590Z,,,,,,6,746.5819999998203,response,,0.515,0.545,,,https://raw.githubusercontent.com/carero2/loss-perception/main/png/0.515blue1yellowb%3D1w%3D100v%3D92.png,https://raw.githubusercontent.com/carero2/loss-perception/main/png/0.545blue1yellowb%3D1w%3D100v%3D92.png,,,,,,,,,true,f,keypress(f),0.545,0.515,true,318820.2999999998,318818.2999999998,317821.936,318081.10000000056,318071.718,318837.791,,,
choice,canvas.Screen,0_8_19_2,2022-07-15T14:25:55.591Z,,,,0.515,,6,998.8769999999786,timeout,,,0.545,,0.545,,,3,14,,,,,,,,,,,0.515,true,319821,319819.915,318820.845,318829.2000000002,318837.791,319836.668,114,,
ITI,canvas.Screen,0_8_19_3,2022-07-15T14:25:56.091Z,,,2888,,,6,499.7029999999795,timeout,,,0.545,,,,,,,,,,,,,,,,,0.515,true,320320.60000000056,320319.598,319819.915,319821.2999999998,319836.668,320336.371,,,
trial,flow.Sequence,0_8_19,2022-07-15T14:25:56.091Z,,,,,,6,2980.6900000000023,completion,,,0.545,,,,,,,,,,,,,,,,,0.515,true,320321,320319.598,317322.26,317323.7000000002,317338.908,320336.371,,,
fixation,canvas.Screen,0_8_20_0,2022-07-15T14:25:56.590Z,,,,,,6,849.0979999999981,timeout,,,0.515,,,,,,,,,,,,,,,,,0.485,false,320820.10000000056,320819.131,320319.598,320321.2000000002,320336.371,321185.469,,,
stimulus,canvas.Screen,0_8_20_1,2022-07-15T14:25:58.343Z,,,,,,6,1385.5310000000172,response,,0.515,0.515,,,https://raw.githubusercontent.com/carero2/loss-perception/main/png/0.515blue1yellowb%3D1w%3D100v%3D63.png,https://raw.githubusercontent.com/carero2/loss-perception/main/png/0.485blue1yellowb%3D1w%3D100v%3D63.png,,,,,,,,,true,f,keypress(f),0.485,0.485,false,322573.10000000056,322571,320819.131,321195,321185.469,322601.277,,,
choice,canvas.Screen,0_8_20_2,2022-07-15T14:25:59.354Z,,,,0.515,,6,998.984999999986,timeout,,,0.515,,0.485,,,3,17,,,,,,,,,,,0.485,false,323584.2000000002,323583.217,322584.228,322593,322601.277,323600.262,117,,
ITI,canvas.Screen,0_8_20_3,2022-07-15T14:25:59.854Z,,,2133,,,6,499.06099999998696,timeout,,,0.515,,,,,,,,,,,,,,,,,0.485,false,324083.7999999998,324082.757,323583.217,323584.60000000056,323600.262,324099.323,,,
trial,flow.Sequence,0_8_20,2022-07-15T14:25:59.854Z,,,,,,6,3746.3859999999986,completion,,,0.515,,,,,,,,,,,,,,,,,0.485,false,324084.2000000002,324082.757,320319.598,320321.10000000056,320336.371,324099.323,,,
fixation,canvas.Screen,0_8_21_0,2022-07-15T14:26:00.353Z,,,,,,4,749.3940000000293,timeout,,,0.51,,,,,,,,,,,,,,,,,0.49,false,324583.2000000002,324582.282,324082.757,324084.2999999998,324099.323,324848.717,,,
stimulus,canvas.Screen,0_8_21_1,2022-07-15T14:26:02.043Z,,,,,,4,1421.7829999999958,response,,0.51,0.51,,,https://raw.githubusercontent.com/carero2/loss-perception/main/png/0.51blue1yellowb%3D1w%3D100v%3D33.png,https://raw.githubusercontent.com/carero2/loss-perception/main/png/0.49blue1yellowb%3D1w%3D100v%3D33.png,,,,,,,,,true,f,keypress(f),0.49,0.49,false,326272.7000000002,326270.5,324582.282,324858.7000000002,324848.717,326297.536,,,
choice,canvas.Screen,0_8_21_2,2022-07-15T14:26:03.051Z,,,,0.51,,4,998.8319999999949,timeout,,,0.51,,0.49,,,2,19,,,,,,,,,,,0.49,false,327281,327279.777,326280.312,326283.2000000002,326297.536,327296.368,119,,
ITI,canvas.Screen,0_8_21_3,2022-07-15T14:26:03.550Z,,,2290,,,4,499.7969999999623,timeout,,,0.51,,,,,,,,,,,,,,,,,0.49,false,327780.2999999998,327779.3,327279.777,327281.2999999998,327296.368,327796.165,,,
trial,flow.Sequence,0_8_21,2022-07-15T14:26:03.551Z,,,,,,4,3679.9770000000135,completion,,,0.51,,,,,,,,,,,,,,,,,0.49,false,327780.60000000056,327779.3,324082.757,324084.2999999998,324099.323,327796.165,,,
fixation,canvas.Screen,0_8_22_0,2022-07-15T14:26:04.050Z,,,,,,4,749.0869999999995,timeout,,,0.53,,,,,,,,,,,,,,,,,0.51,true,328279.7999999998,328278.66,327779.3,327780.9000000004,327796.165,328545.252,,,
stimulus,canvas.Screen,0_8_22_1,2022-07-15T14:26:05.554Z,,,,,,4,1236.2480000000214,response,,0.51,0.53,,,https://raw.githubusercontent.com/carero2/loss-perception/main/png/0.51blue1yellowb%3D1w%3D100v%3D4.png,https://raw.githubusercontent.com/carero2/loss-perception/main/png/0.53blue1yellowb%3D1w%3D100v%3D4.png,,,,,,,,,true,f,keypress(f),0.53,0.51,true,329783.4000000004,329781.5,328278.66,328557,328545.252,329810.56,,,
choice,canvas.Screen,0_8_22_2,2022-07-15T14:26:06.564Z,,,,0.51,,4,998.9890000000014,timeout,,,0.53,,0.53,,,2,21,,,,,,,,,,,0.51,true,330794.2999999998,330793.176,329793.71,329803,329810.56,330809.549,121,,
ITI,canvas.Screen,0_8_22_3,2022-07-15T14:26:07.064Z,,,2405,,,4,499.8960000000079,timeout,,,0.53,,,,,,,,,,,,,,,,,0.51,true,331293.7000000002,331292.692,330793.176,330794.5,330809.549,331309.445,,,
trial,flow.Sequence,0_8_22,2022-07-15T14:26:07.064Z,,,,,,4,3496.527000000002,completion,,,0.53,,,,,,,,,,,,,,,,,0.51,true,331294.2000000002,331292.692,327779.3,327780.7999999998,327796.165,331309.445,,,
fixation,canvas.Screen,0_8_23_0,2022-07-15T14:26:07.563Z,,,,,,2,832.4419999999809,timeout,,,0.515,,,,,,,,,,,,,,,,,0.505,true,331793.10000000056,331791.986,331292.692,331294.2999999998,331309.445,332141.887,,,
stimulus,canvas.Screen,0_8_23_1,2022-07-15T14:26:09.062Z,,,,,,2,1148.4129999998258,response,,0.505,0.515,,,https://raw.githubusercontent.com/carero2/loss-perception/main/png/0.505blue1yellowb%3D1w%3D100v%3D27.png,https://raw.githubusercontent.com/carero2/loss-perception/main/png/0.515blue1yellowb%3D1w%3D100v%3D27.png,,,,,,,,,true,f,keypress(f),0.515,0.505,true,333292,333290.2999999998,331791.986,332155.5,332141.887,333307.186,,,
choice,canvas.Screen,0_8_23_2,2022-07-15T14:26:10.064Z,,,,0.505,,2,999.5960000000196,timeout,,,0.515,,0.515,,,1,22,,,,,,,,,,,0.505,true,334290.7999999998,334289.745,333290.811,333302.60000000056,333307.186,334306.782,122,,
ITI,canvas.Screen,0_8_23_3,2022-07-15T14:26:10.564Z,,,2042,,,2,499.3979999999865,timeout,,,0.515,,,,,,,,,,,,,,,,,0.505,true,334790.4000000004,334789.427,334289.745,334291,334306.782,334806.18,,,
trial,flow.Sequence,0_8_23,2022-07-15T14:26:10.564Z,,,,,,2,3479.982000000018,completion,,,0.515,,,,,,,,,,,,,,,,,0.505,true,334790.7999999998,334789.427,331292.692,331294.2999999998,331309.445,334806.18,,,
fixation,canvas.Screen,0_8_24_0,2022-07-15T14:26:11.063Z,,,,,,2,749.185999999987,timeout,,,0.505,,,,,,,,,,,,,,,,,0.495,false,335289.9000000004,335288.952,334789.427,334791.10000000056,334806.18,335555.366,,,
stimulus,canvas.Screen,0_8_24_1,2022-07-15T14:26:12.883Z,,,,,,2,1549.4339999998338,response,,0.505,0.505,,,https://raw.githubusercontent.com/carero2/loss-perception/main/png/0.505blue1yellowb%3D1w%3D100v%3D59.png,https://raw.githubusercontent.com/carero2/loss-perception/main/png/0.495blue1yellowb%3D1w%3D100v%3D59.png,,,,,,,,,true,j,keypress(j),0.495,0.495,false,337109.9000000004,337104.7999999998,335288.952,335565.4000000004,335555.366,337137.341,,,
choice,canvas.Screen,0_8_24_2,2022-07-15T14:26:13.894Z,,,,0.495,,2,998.7760000000126,timeout,,,0.505,,0.505,,,-1,21,,,,,,,,,,,0.495,false,338120.7000000002,338119.583,337120.792,337127.9000000004,337137.341,338136.117,121,,
ITI,canvas.Screen,0_8_24_3,2022-07-15T14:26:14.394Z,,,2220,,,2,499.80199999996694,timeout,,,0.505,,,,,,,,,,,,,,,,,0.495,false,338620.2999999998,338619.117,338119.583,338121.10000000056,338136.117,338635.919,,,
trial,flow.Sequence,0_8_24,2022-07-15T14:26:14.394Z,,,,,,2,3812.9370000000345,completion,,,0.505,,,,,,,,,,,,,,,,,0.495,false,338620.7000000002,338619.117,334789.427,334791,334806.18,338635.919,,,
fixation,canvas.Screen,0_8_25_0,2022-07-15T14:26:14.893Z,,,,,,2,732.439000000013,timeout,,,0.495,,,,,,,,,,,,,,,,,0.485,true,339119.7999999998,339118.658,338619.117,338620.9000000004,338635.919,339368.358,,,
stimulus,canvas.Screen,0_8_25_1,2022-07-15T14:26:16.189Z,,,,,,2,1045.9419999998063,response,,0.485,0.495,,,https://raw.githubusercontent.com/carero2/loss-perception/main/png/0.485blue1yellowb%3D1w%3D100v%3D19.png,https://raw.githubusercontent.com/carero2/loss-perception/main/png/0.495blue1yellowb%3D1w%3D100v%3D19.png,,,,,,,,,true,j,keypress(j),0.495,0.485,true,340416.2000000002,340414.2999999998,339118.658,339376.5,339368.358,340433.989,,,
choice,canvas.Screen,0_8_25_2,2022-07-15T14:26:17.191Z,,,,0.495,,2,999.5690000000177,timeout,,,0.495,,0.485,,,-1,20,,,,,,,,,,,0.485,true,341417.7000000002,341416.506,340417.001,340426.2000000002,340433.989,341433.558,120,,
ITI,canvas.Screen,0_8_25_3,2022-07-15T14:26:17.690Z,,,2756,,,2,499.0679999999702,timeout,,,0.495,,,,,,,,,,,,,,,,,0.485,true,341916.9000000004,341915.964,341416.506,341418,341433.558,341932.626,,,
trial,flow.Sequence,0_8_25,2022-07-15T14:26:17.691Z,,,,,,2,3280.0449999999837,completion,,,0.495,,,,,,,,,,,,,,,,,0.485,true,341917.4000000004,341915.964,338619.117,338620.9000000004,338635.919,341932.626,,,
fixation,canvas.Screen,0_8_26_0,2022-07-15T14:26:18.190Z,,,,,,4,799.2609999999986,timeout,,,0.49,,,,,,,,,,,,,,,,,0.47,true,342416.60000000056,342415.571,341915.964,341917.60000000056,341932.626,342731.887,,,
stimulus,canvas.Screen,0_8_26_1,2022-07-15T14:26:19.230Z,,,,,,4,723.4129999998258,response,,0.47,0.49,,,https://raw.githubusercontent.com/carero2/loss-perception/main/png/0.47blue1yellowb%3D1w%3D100v%3D8.png,https://raw.githubusercontent.com/carero2/loss-perception/main/png/0.49blue1yellowb%3D1w%3D100v%3D8.png,,,,,,,,,true,j,keypress(j),0.49,0.47,true,343457.10000000056,343455.2999999998,342415.571,342744.5,342731.887,343481.448,,,
choice,canvas.Screen,0_8_26_2,2022-07-15T14:26:20.238Z,,,,0.49,,4,998.7570000000414,timeout,,,0.49,,0.47,,,-2,18,,,,,,,,,,,0.47,true,344464.7999999998,344463.676,343464.408,343467.5,343481.448,344480.205,118,,
ITI,canvas.Screen,0_8_26_3,2022-07-15T14:26:20.737Z,,,2739,,,4,499.8289999999688,timeout,,,0.49,,,,,,,,,,,,,,,,,0.47,true,344964.2000000002,344963.172,344463.676,344465.10000000056,344480.205,344980.034,,,
trial,flow.Sequence,0_8_26,2022-07-15T14:26:20.738Z,,,,,,4,3030.546000000031,completion,,,0.49,,,,,,,,,,,,,,,,,0.47,true,344964.7000000002,344963.172,341915.964,341917.5,341932.626,344980.034,,,
fixation,canvas.Screen,0_8_27_0,2022-07-15T14:26:21.237Z,,,,,,2,732.4440000000177,timeout,,,0.505,,,,,,,,,,,,,,,,,0.495,true,345463.7000000002,345462.713,344963.172,344964.7999999998,344980.034,345712.478,,,
stimulus,canvas.Screen,0_8_27_1,2022-07-15T14:26:22.883Z,,,,,,2,1392.2220000001835,response,,0.495,0.505,,,https://raw.githubusercontent.com/carero2/loss-perception/main/png/0.495blue1yellowb%3D1w%3D100v%3D5.png,https://raw.githubusercontent.com/carero2/loss-perception/main/png/0.505blue1yellowb%3D1w%3D100v%3D5.png,,,,,,,,,true,f,keypress(f),0.505,0.495,true,347109.2999999998,347104.7000000002,345462.713,345725.2000000002,345712.478,347127.622,,,
choice,canvas.Screen,0_8_27_2,2022-07-15T14:26:23.885Z,,,,0.495,,2,999.149000000034,timeout,,,0.505,,0.505,,,-1,17,,,,,,,,,,,0.495,true,348111.4000000004,348110.236,347111.152,347116.7999999998,347127.622,348126.771,117,,
ITI,canvas.Screen,0_8_27_3,2022-07-15T14:26:24.384Z,,,2683,,,2,499.96100000001024,timeout,,,0.505,,,,,,,,,,,,,,,,,0.495,true,348610.9000000004,348609.78,348110.236,348111.7000000002,348126.771,348626.732,,,
trial,flow.Sequence,0_8_27,2022-07-15T14:26:24.385Z,,,,,,2,3629.746000000043,completion,,,0.505,,,,,,,,,,,,,,,,,0.495,true,348611.2999999998,348609.78,344963.172,344964.7999999998,344980.034,348626.732,,,
fixation,canvas.Screen,0_8_28_0,2022-07-15T14:26:24.884Z,,,,,,4,749.1080000000075,timeout,,,0.49,,,,,,,,,,,,,,,,,0.47,true,349110.4000000004,349109.318,348609.78,348611.60000000056,348626.732,349375.84,,,
stimulus,canvas.Screen,0_8_28_1,2022-07-15T14:26:27.006Z,,,,,,4,1850.4599999997881,response,,0.47,0.49,,,https://raw.githubusercontent.com/carero2/loss-perception/main/png/0.47blue1yellowb%3D1w%3D100v%3D85.png,https://raw.githubusercontent.com/carero2/loss-perception/main/png/0.49blue1yellowb%3D1w%3D100v%3D85.png,,,,,,,,,true,j,keypress(j),0.49,0.47,true,351232.2999999998,351226.2999999998,349109.318,349383.2999999998,349375.84,351274.075,,,
choice,canvas.Screen,0_8_28_2,2022-07-15T14:26:28.031Z,,,,0.49,,4,998.8069999999716,timeout,,,0.49,,0.47,,,-2,15,,,,,,,,,,,0.47,true,352257.60000000056,352256.471,351257.686,351258.7000000002,351274.075,352272.882,115,,
ITI,canvas.Screen,0_8_28_3,2022-07-15T14:26:28.530Z,,,2673,,,4,499.8539999999921,timeout,,,0.49,,,,,,,,,,,,,,,,,0.47,true,352757,352755.906,352256.471,352257.9000000004,352272.882,352772.736,,,
trial,flow.Sequence,0_8_28,2022-07-15T14:26:28.531Z,,,,,,4,4129.173999999999,completion,,,0.49,,,,,,,,,,,,,,,,,0.47,true,352757.5,352755.906,348609.78,348611.5,348626.732,352772.736,,,
fixation,canvas.Screen,0_8_29_0,2022-07-15T14:26:29.030Z,,,,,,6,1182.1260000000475,timeout,,,0.515,,,,,,,,,,,,,,,,,0.485,true,353256.5,353255.516,352755.906,352757.7000000002,352772.736,353954.862,,,
stimulus,canvas.Screen,0_8_29_1,2022-07-15T14:26:30.468Z,,,,,,6,738.3380000001634,response,,0.485,0.515,,,https://raw.githubusercontent.com/carero2/loss-perception/main/png/0.485blue1yellowb%3D1w%3D100v%3D17.png,https://raw.githubusercontent.com/carero2/loss-perception/main/png/0.515blue1yellowb%3D1w%3D100v%3D17.png,,,,,,,,,true,j,keypress(j),0.515,0.485,true,354694.9000000004,354693.2000000002,353255.516,353972.60000000056,353954.862,354737.869,,,
choice,canvas.Screen,0_8_29_2,2022-07-15T14:26:31.494Z,,,,0.515,,6,999.5009999999893,timeout,,,0.515,,0.485,,,3,18,,,,,,,,,,,0.485,true,355720.9000000004,355719.886,354720.597,354724.2999999998,354737.869,355737.37,118,,
ITI,canvas.Screen,0_8_29_3,2022-07-15T14:26:31.994Z,,,2936,,,6,498.6010000000242,timeout,,,0.515,,,,,,,,,,,,,,,,,0.485,true,356220.60000000056,356219.415,355719.886,355721.2999999998,355737.37,356235.971,,,
trial,flow.Sequence,0_8_29,2022-07-15T14:26:31.994Z,,,,,,6,3446.6790000000037,completion,,,0.515,,,,,,,,,,,,,,,,,0.485,true,356221.10000000056,356219.415,352755.906,352757.7000000002,352772.736,356235.971,,,
fixation,canvas.Screen,0_8_30_0,2022-07-15T14:26:32.493Z,,,,,,6,682.786999999953,timeout,,,0.485,,,,,,,,,,,,,,,,,0.455,true,356719.9000000004,356718.934,356219.415,356221.2999999998,356235.971,356918.758,,,
stimulus,canvas.Screen,0_8_30_1,2022-07-15T14:26:33.719Z,,,,,,6,1025.5419999998412,response,,0.455,0.485,,,https://raw.githubusercontent.com/carero2/loss-perception/main/png/0.455blue1yellowb%3D1w%3D100v%3D89.png,https://raw.githubusercontent.com/carero2/loss-perception/main/png/0.485blue1yellowb%3D1w%3D100v%3D89.png,,,,,,,,,true,j,keypress(j),0.485,0.455,true,357945.9000000004,357944.2999999998,356718.934,356926,356918.758,357967.521,,,
choice,canvas.Screen,0_8_30_2,2022-07-15T14:26:34.725Z,,,,0.485,,6,999.4799999999814,timeout,,,0.485,,0.455,,,-3,15,,,,,,,,,,,0.455,true,358951.2999999998,358950.185,357950.836,357965.60000000056,357967.521,358967.001,115,,
ITI,canvas.Screen,0_8_30_3,2022-07-15T14:26:35.224Z,,,2324,,,6,499.27799999999115,timeout,,,0.485,,,,,,,,,,,,,,,,,0.455,true,359450.7000000002,359449.722,358950.185,358951.60000000056,358967.001,359466.279,,,
trial,flow.Sequence,0_8_30,2022-07-15T14:26:35.224Z,,,,,,6,3213.7509999999893,completion,,,0.485,,,,,,,,,,,,,,,,,0.455,true,359451.2000000002,359449.722,356219.415,356221.2999999998,356235.971,359466.279,,,
fixation,canvas.Screen,0_8_31_0,2022-07-15T14:26:35.724Z,,,,,,4,749.3940000000293,timeout,,,0.53,,,,,,,,,,,,,,,,,0.51,false,359950.2000000002,359949.254,359449.722,359451.4000000004,359466.279,360215.673,,,
stimulus,canvas.Screen,0_8_31_1,2022-07-15T14:26:36.775Z,,,,,,4,784.0270000001765,response,,0.53,0.53,,,https://raw.githubusercontent.com/carero2/loss-perception/main/png/0.53blue1yellowb%3D1w%3D100v%3D25.png,https://raw.githubusercontent.com/carero2/loss-perception/main/png/0.51blue1yellowb%3D1w%3D100v%3D25.png,,,,,,,,,true,j,keypress(j),0.51,0.51,false,361001.4000000004,360999.7000000002,359949.254,360223,360215.673,361031.592,,,
choice,canvas.Screen,0_8_31_2,2022-07-15T14:26:37.788Z,,,,0.51,,4,999.0929999999935,timeout,,,0.53,,0.53,,,2,17,,,,,,,,,,,0.51,false,362015.10000000056,362014.045,361014.799,361021,361031.592,362030.685,117,,
ITI,canvas.Screen,0_8_31_3,2022-07-15T14:26:38.288Z,,,2847,,,4,499.65299999999115,timeout,,,0.53,,,,,,,,,,,,,,,,,0.51,false,362514.5,362513.538,362014.045,362015.4000000004,362030.685,362530.338,,,
trial,flow.Sequence,0_8_31,2022-07-15T14:26:38.288Z,,,,,,4,3047.25900000002,completion,,,0.53,,,,,,,,,,,,,,,,,0.51,false,362515,362513.538,359449.722,359451.2999999998,359466.279,362530.338,,,
fixation,canvas.Screen,0_8_32_0,2022-07-15T14:26:38.787Z,,,,,,6,749.1500000000233,timeout,,,0.545,,,,,,,,,,,,,,,,,0.515,true,363014.2000000002,363013.004,362513.538,362515.2000000002,362530.338,363279.488,,,
stimulus,canvas.Screen,0_8_32_1,2022-07-15T14:26:40.127Z,,,,,,6,1072.2120000001742,response,,0.515,0.545,,,https://raw.githubusercontent.com/carero2/loss-perception/main/png/0.515blue1yellowb%3D1w%3D100v%3D53.png,https://raw.githubusercontent.com/carero2/loss-perception/main/png/0.545blue1yellowb%3D1w%3D100v%3D53.png,,,,,,,,,true,j,keypress(j),0.545,0.515,true,364354.10000000056,364351.7000000002,363013.004,363292.60000000056,363279.488,364378.74,,,
choice,canvas.Screen,0_8_32_2,2022-07-15T14:26:41.135Z,,,,0.545,,6,998.859999999986,timeout,,,0.545,,0.515,,,9,26,,,,,,,,,,,0.515,true,365362,365360.886,364362.052,364362.5,364378.74,365377.6,126,,
ITI,canvas.Screen,0_8_32_3,2022-07-15T14:26:41.635Z,,,2266,,,6,499.55200000002515,timeout,,,0.545,,,,,,,,,,,,,,,,,0.515,true,365861.60000000056,365860.396,365360.886,365362.2000000002,365377.6,365877.152,,,
trial,flow.Sequence,0_8_32,2022-07-15T14:26:41.636Z,,,,,,6,3330.058000000019,completion,,,0.545,,,,,,,,,,,,,,,,,0.515,true,365862.2000000002,365860.396,362513.538,362515.2000000002,362530.338,365877.152,,,
fixation,canvas.Screen,0_8_33_0,2022-07-15T14:26:42.134Z,,,,,,2,732.5439999999944,timeout,,,0.515,,,,,,,,,,,,,,,,,0.505,true,366360.9000000004,366359.935,365860.396,365862.4000000004,365877.152,366609.696,,,
stimulus,canvas.Screen,0_8_33_1,2022-07-15T14:26:43.540Z,,,,,,2,1154.7040000003763,response,,0.505,0.515,,,https://raw.githubusercontent.com/carero2/loss-perception/main/png/0.505blue1yellowb%3D1w%3D100v%3D69.png,https://raw.githubusercontent.com/carero2/loss-perception/main/png/0.515blue1yellowb%3D1w%3D100v%3D69.png,,,,,,,,,true,j,keypress(j),0.515,0.505,true,367766.2999999998,367764.4000000004,366359.935,366621.4000000004,366609.696,367792.066,,,
choice,canvas.Screen,0_8_33_2,2022-07-15T14:26:44.549Z,,,,0.515,,2,999.8410000000149,timeout,,,0.515,,0.505,,,3,29,,,,,,,,,,,0.505,true,368775.4000000004,368774.356,367774.807,367776,367792.066,368791.907,129,,
ITI,canvas.Screen,0_8_33_3,2022-07-15T14:26:45.048Z,,,2773,,,2,498.36800000001676,timeout,,,0.515,,,,,,,,,,,,,,,,,0.505,true,369274.9000000004,369273.74,368774.356,368775.7999999998,368791.907,369290.275,,,
trial,flow.Sequence,0_8_33,2022-07-15T14:26:45.049Z,,,,,,2,3396.587999999989,completion,,,0.515,,,,,,,,,,,,,,,,,0.505,true,369275.2999999998,369273.74,365860.396,365862.4000000004,365877.152,369290.275,,,
fixation,canvas.Screen,0_8_34_0,2022-07-15T14:26:45.548Z,,,,,,2,732.6339999999618,timeout,,,0.495,,,,,,,,,,,,,,,,,0.485,false,369774.4000000004,369773.351,369273.74,369275.5,369290.275,370022.909,,,
stimulus,canvas.Screen,0_8_34_1,2022-07-15T14:26:46.768Z,,,,,,2,970.1910000005737,response,,0.495,0.495,,,https://raw.githubusercontent.com/carero2/loss-perception/main/png/0.495blue1yellowb%3D1w%3D100v%3D95.png,https://raw.githubusercontent.com/carero2/loss-perception/main/png/0.485blue1yellowb%3D1w%3D100v%3D95.png,,,,,,,,,true,j,keypress(j),0.485,0.485,false,370994.9000000004,370993.10000000056,369773.351,370029.5,370022.909,371005.306,,,
choice,canvas.Screen,0_8_34_2,2022-07-15T14:26:47.762Z,,,,0.485,,2,999.3790000000154,timeout,,,0.495,,0.495,,,-3,26,,,,,,,,,,,0.485,false,371988.9000000004,371987.921,370988.629,371004,371005.306,372004.685,126,,
ITI,canvas.Screen,0_8_34_3,2022-07-15T14:26:48.262Z,,,2323,,,2,499.329000000027,timeout,,,0.495,,,,,,,,,,,,,,,,,0.485,false,372488.60000000056,372487.485,371987.921,371989.2999999998,372004.685,372504.014,,,
trial,flow.Sequence,0_8_34,2022-07-15T14:26:48.262Z,,,,,,2,3197.2099999999627,completion,,,0.495,,,,,,,,,,,,,,,,,0.485,false,372489.10000000056,372487.485,369273.74,369275.5,369290.275,372504.014,,,
fixation,canvas.Screen,0_8_35_0,2022-07-15T14:26:48.761Z,,,,,,4,815.9959999999846,timeout,,,0.51,,,,,,,,,,,,,,,,,0.49,false,372988,372987.003,372487.485,372489.2999999998,372504.014,373320.01,,,
stimulus,canvas.Screen,0_8_35_1,2022-07-15T14:26:50.031Z,,,,,,4,935.9899999999907,response,,0.51,0.51,,,https://raw.githubusercontent.com/carero2/loss-perception/main/png/0.51blue1yellowb%3D1w%3D100v%3D86.png,https://raw.githubusercontent.com/carero2/loss-perception/main/png/0.49blue1yellowb%3D1w%3D100v%3D86.png,,,,,,,,,true,f,keypress(f),0.49,0.49,false,374257.7999999998,374256,372987.003,373339.7000000002,373320.01,374269.055,,,
choice,canvas.Screen,0_8_35_2,2022-07-15T14:26:51.026Z,,,,0.51,,4,999.3070000000298,timeout,,,0.51,,0.49,,,2,28,,,,,,,,,,,0.49,false,375252.7000000002,375251.571,374252.553,374267.2000000002,374269.055,375268.362,128,,
ITI,canvas.Screen,0_8_35_3,2022-07-15T14:26:51.526Z,,,2894,,,4,499.37099999998463,timeout,,,0.51,,,,,,,,,,,,,,,,,0.49,false,375752.2999999998,375751.194,375251.571,375253.10000000056,375268.362,375767.733,,,
trial,flow.Sequence,0_8_35,2022-07-15T14:26:51.526Z,,,,,,4,3247.179999999993,completion,,,0.51,,,,,,,,,,,,,,,,,0.49,false,375752.7000000002,375751.194,372487.485,372489.2000000002,372504.014,375767.733,,,
fixation,canvas.Screen,0_8_36_0,2022-07-15T14:26:52.025Z,,,,,,2,732.6290000000154,timeout,,,0.495,,,,,,,,,,,,,,,,,0.485,false,376251.7999999998,376250.71,375751.194,375752.9000000004,375767.733,376500.362,,,
stimulus,canvas.Screen,0_8_36_1,2022-07-15T14:26:52.962Z,,,,,,2,686.0380000003497,response,,0.495,0.495,,,https://raw.githubusercontent.com/carero2/loss-perception/main/png/0.495blue1yellowb%3D1w%3D100v%3D74.png,https://raw.githubusercontent.com/carero2/loss-perception/main/png/0.485blue1yellowb%3D1w%3D100v%3D74.png,,,,,,,,,true,f,keypress(f),0.485,0.485,false,377188.4000000004,377186.4000000004,376250.71,376509.10000000056,376500.362,377216.709,,,
choice,canvas.Screen,0_8_36_2,2022-07-15T14:26:53.973Z,,,,0.495,,2,998.8400000000256,timeout,,,0.495,,0.485,,,-1,27,,,,,,,,,,,0.485,false,378199.9000000004,378198.871,377199.91,377207.9000000004,377216.709,378215.549,127,,
ITI,canvas.Screen,0_8_36_3,2022-07-15T14:26:54.473Z,,,2828,,,2,499.4010000000126,timeout,,,0.495,,,,,,,,,,,,,,,,,0.485,false,378699.2999999998,378698.294,378198.871,378200.2000000002,378215.549,378714.95,,,
trial,flow.Sequence,0_8_36,2022-07-15T14:26:54.473Z,,,,,,2,2930.560999999987,completion,,,0.495,,,,,,,,,,,,,,,,,0.485,false,378699.60000000056,378698.294,375751.194,375752.9000000004,375767.733,378714.95,,,
fixation,canvas.Screen,0_8_37_0,2022-07-15T14:26:54.972Z,,,,,,4,899.2859999999637,timeout,,,0.53,,,,,,,,,,,,,,,,,0.51,false,379199,379197.964,378698.294,378699.9000000004,378714.95,379614.236,,,
stimulus,canvas.Screen,0_8_37_1,2022-07-15T14:26:56.059Z,,,,,,4,669.1640000003972,response,,0.53,0.53,,,https://raw.githubusercontent.com/carero2/loss-perception/main/png/0.53blue1yellowb%3D1w%3D100v%3D72.png,https://raw.githubusercontent.com/carero2/loss-perception/main/png/0.51blue1yellowb%3D1w%3D100v%3D72.png,,,,,,,,,true,j,keypress(j),0.51,0.51,false,380285.2999999998,380283.4000000004,379197.964,379621,379614.236,380313.31,,,
choice,canvas.Screen,0_8_37_2,2022-07-15T14:26:57.070Z,,,,0.51,,4,999.5360000000219,timeout,,,0.53,,0.53,,,2,29,,,,,,,,,,,0.51,false,381297.10000000056,381296.002,380296.703,380305.2000000002,380313.31,381312.846,129,,
ITI,canvas.Screen,0_8_37_3,2022-07-15T14:26:57.570Z,,,2770,,,4,499.5109999999986,timeout,,,0.53,,,,,,,,,,,,,,,,,0.51,false,381796.5,381795.515,381296.002,381297.4000000004,381312.846,381812.357,,,
trial,flow.Sequence,0_8_37,2022-07-15T14:26:57.570Z,,,,,,4,3080.5650000000023,completion,,,0.53,,,,,,,,,,,,,,,,,0.51,false,381796.9000000004,381795.515,378698.294,378699.7999999998,378714.95,381812.357,,,
fixation,canvas.Screen,0_8_38_0,2022-07-15T14:26:58.070Z,,,,,,6,998.8829999999725,timeout,,,0.485,,,,,,,,,,,,,,,,,0.455,false,382296.4000000004,382294.817,381795.515,381797,381812.357,382811.24,,,
stimulus,canvas.Screen,0_8_38_1,2022-07-15T14:26:59.785Z,,,,,,6,1198.1600000003818,response,,0.485,0.485,,,https://raw.githubusercontent.com/carero2/loss-perception/main/png/0.485blue1yellowb%3D1w%3D100v%3D65.png,https://raw.githubusercontent.com/carero2/loss-perception/main/png/0.455blue1yellowb%3D1w%3D100v%3D65.png,,,,,,,,,true,f,keypress(f),0.455,0.455,false,384011.5,384009.4000000004,382294.817,382820.5,382811.24,384043.555,,,
choice,canvas.Screen,0_8_38_2,2022-07-15T14:27:00.800Z,,,,0.485,,6,999.695000000007,timeout,,,0.485,,0.455,,,-3,26,,,,,,,,,,,0.455,false,385026.9000000004,385025.836,384026.452,384031,384043.555,385043.25,126,,
ITI,canvas.Screen,0_8_38_3,2022-07-15T14:27:01.300Z,,,2577,,,6,499.29899999999907,timeout,,,0.485,,,,,,,,,,,,,,,,,0.455,false,385526.4000000004,385525.372,385025.836,385027.10000000056,385043.25,385542.549,,,
trial,flow.Sequence,0_8_38,2022-07-15T14:27:01.300Z,,,,,,6,3713.0149999999558,completion,,,0.485,,,,,,,,,,,,,,,,,0.455,false,385526.7999999998,385525.372,381795.515,381797,381812.357,385542.549,,,
fixation,canvas.Screen,0_8_39_0,2022-07-15T14:27:01.799Z,,,,,,6,732.869000000006,timeout,,,0.515,,,,,,,,,,,,,,,,,0.485,true,386025.7999999998,386024.821,385525.372,385527,385542.549,386275.418,,,
stimulus,canvas.Screen,0_8_39_1,2022-07-15T14:27:03.437Z,,,,,,6,1385.6820000005537,response,,0.485,0.515,,,https://raw.githubusercontent.com/carero2/loss-perception/main/png/0.485blue1yellowb%3D1w%3D100v%3D55.png,https://raw.githubusercontent.com/carero2/loss-perception/main/png/0.515blue1yellowb%3D1w%3D100v%3D55.png,,,,,,,,,true,f,keypress(f),0.515,0.485,true,387663.2999999998,387661.10000000056,386024.821,386281.60000000056,386275.418,387689.75,,,
choice,canvas.Screen,0_8_39_2,2022-07-15T14:27:04.447Z,,,,0.485,,6,999.359999999986,timeout,,,0.515,,0.515,,,-3,23,,,,,,,,,,,0.485,true,388673.5,388672.432,387673.307,387682.2000000002,387689.75,388689.11,123,,
ITI,canvas.Screen,0_8_39_3,2022-07-15T14:27:04.946Z,,,2622,,,6,499.6149999999907,timeout,,,0.515,,,,,,,,,,,,,,,,,0.485,true,389173.2000000002,389171.994,388672.432,388673.7999999998,388689.11,389188.725,,,
trial,flow.Sequence,0_8_39,2022-07-15T14:27:04.947Z,,,,,,6,3629.445000000007,completion,,,0.515,,,,,,,,,,,,,,,,,0.485,true,389173.60000000056,389171.994,385525.372,385527,385542.549,389188.725,,,
fixation,canvas.Screen,0_8_40_0,2022-07-15T14:27:05.446Z,,,,,,6,749.2530000000261,timeout,,,0.545,,,,,,,,,,,,,,,,,0.515,true,389672.7999999998,389671.565,389171.994,389173.7999999998,389188.725,389937.978,,,
stimulus,canvas.Screen,0_8_40_1,2022-07-15T14:27:06.446Z,,,,,,6,732.622000000556,response,,0.515,0.545,,,https://raw.githubusercontent.com/carero2/loss-perception/main/png/0.515blue1yellowb%3D1w%3D100v%3D30.png,https://raw.githubusercontent.com/carero2/loss-perception/main/png/0.545blue1yellowb%3D1w%3D100v%3D30.png,,,,,,,,,true,f,keypress(f),0.545,0.515,true,390672.5,390670.60000000056,389671.565,389951.2999999998,389937.978,390686.932,,,
choice,canvas.Screen,0_8_40_2,2022-07-15T14:27:07.444Z,,,,0.515,,6,999.5980000000563,timeout,,,0.545,,0.545,,,3,26,,,,,,,,,,,0.515,true,391670.9000000004,391669.659,390670.666,390681.5,390686.932,391686.53,126,,
ITI,canvas.Screen,0_8_40_3,2022-07-15T14:27:07.943Z,,,2154,,,6,499.3649999999907,timeout,,,0.545,,,,,,,,,,,,,,,,,0.515,true,392169.7000000002,392168.938,391669.659,391671.2000000002,391686.53,392185.895,,,
trial,flow.Sequence,0_8_40,2022-07-15T14:27:07.943Z,,,,,,6,2980.213000000047,completion,,,0.545,,,,,,,,,,,,,,,,,0.515,true,392169.9000000004,392168.938,389171.994,389173.7999999998,389188.725,392185.895,,,
fixation,canvas.Screen,0_8_41_0,2022-07-15T14:27:08.443Z,,,,,,4,832.2429999999586,timeout,,,0.51,,,,,,,,,,,,,,,,,0.49,true,392669.7000000002,392668.712,392168.938,392170.10000000056,392185.895,393018.138,,,
stimulus,canvas.Screen,0_8_41_1,2022-07-15T14:27:09.926Z,,,,,,4,1132.4620000005816,response,,0.49,0.51,,,https://raw.githubusercontent.com/carero2/loss-perception/main/png/0.49blue1yellowb%3D1w%3D100v%3D55.png,https://raw.githubusercontent.com/carero2/loss-perception/main/png/0.51blue1yellowb%3D1w%3D100v%3D55.png,,,,,,,,,true,j,keypress(j),0.51,0.49,true,394152.4000000004,394150.60000000056,392668.712,393026.9000000004,393018.138,394184.127,,,
choice,canvas.Screen,0_8_41_2,2022-07-15T14:27:10.939Z,,,,0.51,,4,998.8340000000317,timeout,,,0.51,,0.49,,,2,28,,,,,,,,,,,0.49,true,395167.4000000004,395166.365,394166.705,394172.2999999998,394184.127,395182.961,128,,
ITI,canvas.Screen,0_8_41_3,2022-07-15T14:27:11.439Z,,,2069,,,4,499.5249999999651,timeout,,,0.51,,,,,,,,,,,,,,,,,0.49,true,395667.10000000056,395665.953,395166.365,395167.7000000002,395182.961,395682.486,,,
trial,flow.Sequence,0_8_41,2022-07-15T14:27:11.439Z,,,,,,4,3480.057999999961,completion,,,0.51,,,,,,,,,,,,,,,,,0.49,true,395667.5,395665.953,392168.938,392170,392185.895,395682.486,,,
fixation,canvas.Screen,0_8_42_0,2022-07-15T14:27:11.938Z,,,,,,2,732.713000000047,timeout,,,0.515,,,,,,,,,,,,,,,,,0.505,true,396166.4000000004,396165.434,395665.953,395667.7000000002,395682.486,396415.199,,,
stimulus,canvas.Screen,0_8_42_1,2022-07-15T14:27:13.207Z,,,,,,2,1018.6009999997914,response,,0.505,0.515,,,https://raw.githubusercontent.com/carero2/loss-perception/main/png/0.505blue1yellowb%3D1w%3D100v%3D4.png,https://raw.githubusercontent.com/carero2/loss-perception/main/png/0.515blue1yellowb%3D1w%3D100v%3D4.png,,,,,,,,,true,j,keypress(j),0.515,0.505,true,397435.60000000056,397433.7999999998,396165.434,396427,396415.199,397463.938,,,
choice,canvas.Screen,0_8_42_2,2022-07-15T14:27:14.219Z,,,,0.515,,2,999.4329999999609,timeout,,,0.515,,0.505,,,3,31,,,,,,,,,,,0.505,true,398447.5,398446.499,397447.35,397457.5,397463.938,398463.371,131,,
ITI,canvas.Screen,0_8_42_3,2022-07-15T14:27:14.719Z,,,2576,,,2,499.26600000000326,timeout,,,0.515,,,,,,,,,,,,,,,,,0.505,true,398947.10000000056,398946.168,398446.499,398447.7000000002,398463.371,398962.637,,,
trial,flow.Sequence,0_8_42,2022-07-15T14:27:14.719Z,,,,,,2,3263.68200000003,completion,,,0.515,,,,,,,,,,,,,,,,,0.505,true,398947.60000000056,398946.168,395665.953,395667.60000000056,395682.486,398962.637,,,
fixation,canvas.Screen,0_8_43_0,2022-07-15T14:27:15.219Z,,,,,,2,699.3310000000056,timeout,,,0.505,,,,,,,,,,,,,,,,,0.495,false,399447,399445.722,398946.168,398947.7999999998,398962.637,399661.968,,,
stimulus,canvas.Screen,0_8_43_1,2022-07-15T14:27:16.853Z,,,,,,2,1417.2320000001928,response,,0.505,0.505,,,https://raw.githubusercontent.com/carero2/loss-perception/main/png/0.505blue1yellowb%3D1w%3D100v%3D19.png,https://raw.githubusercontent.com/carero2/loss-perception/main/png/0.495blue1yellowb%3D1w%3D100v%3D19.png,,,,,,,,,true,j,keypress(j),0.495,0.495,false,401081,401079.2000000002,399445.722,399680.7000000002,399661.968,401093.957,,,
choice,canvas.Screen,0_8_43_2,2022-07-15T14:27:17.849Z,,,,0.495,,2,999.289999999979,timeout,,,0.505,,0.505,,,-1,30,,,,,,,,,,,0.495,false,402077.7000000002,402076.586,401077.266,401090.5,401093.957,402093.247,130,,
ITI,canvas.Screen,0_8_43_3,2022-07-15T14:27:18.350Z,,,2102,,,2,499.31100000004517,timeout,,,0.505,,,,,,,,,,,,,,,,,0.495,false,402578,402576.035,402076.586,402078,402093.247,402592.558,,,
trial,flow.Sequence,0_8_43,2022-07-15T14:27:18.351Z,,,,,,2,3613.3979999999865,completion,,,0.505,,,,,,,,,,,,,,,,,0.495,false,402579.2999999998,402576.035,398946.168,398947.7000000002,398962.637,402592.558,,,
fixation,canvas.Screen,0_8_44_0,2022-07-15T14:27:18.848Z,,,,,,4,799.5129999999772,timeout,,,0.49,,,,,,,,,,,,,,,,,0.47,false,403076.7000000002,403075.649,402576.035,402579.5,402592.558,403392.071,,,
stimulus,canvas.Screen,0_8_44_1,2022-07-15T14:27:20.637Z,,,,,,4,1471.12900000019,response,,0.49,0.49,,,https://raw.githubusercontent.com/carero2/loss-perception/main/png/0.49blue1yellowb%3D1w%3D100v%3D80.png,https://raw.githubusercontent.com/carero2/loss-perception/main/png/0.47blue1yellowb%3D1w%3D100v%3D80.png,,,,,,,,,true,j,keypress(j),0.47,0.47,false,404865.2000000002,404863.2000000002,403075.649,403401.7000000002,403392.071,404890.41,,,
choice,canvas.Screen,0_8_44_2,2022-07-15T14:27:21.645Z,,,,0.47,,4,999.2420000000275,timeout,,,0.49,,0.49,,,-6,24,,,,,,,,,,,0.47,false,405873.7999999998,405872.868,404874.328,404885.2000000002,404890.41,405889.652,124,,
ITI,canvas.Screen,0_8_44_3,2022-07-15T14:27:22.145Z,,,2028,,,4,499.68800000002375,timeout,,,0.49,,,,,,,,,,,,,,,,,0.47,false,406373.4000000004,406372.406,405872.868,405874,405889.652,406389.34,,,
trial,flow.Sequence,0_8_44,2022-07-15T14:27:22.145Z,,,,,,4,3779.847999999998,completion,,,0.49,,,,,,,,,,,,,,,,,0.47,false,406373.9000000004,406372.406,402576.035,402579.4000000004,402592.558,406389.34,,,
1st block,flow.Loop,0_8,2022-07-15T14:27:22.146Z,,,,,,,158502.01900000003,completion,,,,,,,,,,,,,,,,,,,,,,406374.10000000056,406372.406,247855.723,247856.60000000056,247870.387,406389.34,,,
show amount,html.Screen,0_9,2022-07-15T14:27:39.202Z,,,,,,,17037.159999999974,response,,,,,,,,,,,,,,,,,Continue,click #Continue,,,,423430.7000000002,423426.5,406372.406,406375.7999999998,406389.34,423440.468,,,
second block,canvas.Screen,0_10,2022-07-15T14:27:43.236Z,,,,,,,4022.932000000379,response,,,,,,,,,,,,,,,,,space,keypress(Space),,,,427464.9000000004,427463.4000000004,423423.29,423430.7000000002,423440.468,427469.281,,,
fixation,canvas.Screen,0_11_0_0,2022-07-15T14:27:43.726Z,,,,,,6,816.1609999999637,timeout,,,0.545,,,,,,,,,,,,,,,,,0.515,true,427954.2999999998,427953.329,427452.432,427465.10000000056,427469.281,428285.442,,,
stimulus,canvas.Screen,0_11_0_1,2022-07-15T14:27:44.898Z,,,,,,6,839.4580000003916,response,,0.515,0.545,,,https://raw.githubusercontent.com/carero2/loss-perception/main/png/0.515blue1yellowb%3D1w%3D100v%3D86.png,https://raw.githubusercontent.com/carero2/loss-perception/main/png/0.545blue1yellowb%3D1w%3D100v%3D86.png,,,,,,,,,true,f,keypress(f),0.545,0.515,true,429126.4000000004,429124.9000000004,427953.329,428297.4000000004,428285.442,429151.038,,,
choice,canvas.Screen,0_11_0_2,2022-07-15T14:27:45.906Z,,,,0.515,,6,999.3269999999902,timeout,,,0.545,,0.545,,,3,,3,,,,,,,,,,0.515,true,430134.5,430133.557,429134.502,429146.10000000056,429151.038,430150.365,127,,
ITI,canvas.Screen,0_11_0_3,2022-07-15T14:27:46.406Z,,,2216,,,6,499.55100000003586,timeout,,,0.545,,,,,,,,,,,,,,,,,0.515,true,430634.2000000002,430633.242,430133.557,430134.7999999998,430150.365,430649.916,,,
trial,flow.Sequence,0_11_0,2022-07-15T14:27:46.406Z,,,,,,6,3163.9610000000102,completion,,,0.545,,,,,,,,,,,,,,,,,0.515,true,430634.7000000002,430633.242,427452.432,427465.10000000056,427469.281,430649.916,,,
fixation,canvas.Screen,0_11_1_0,2022-07-15T14:27:46.905Z,,,,,,6,815.8849999999511,timeout,,,0.515,,,,,,,,,,,,,,,,,0.485,false,431133.7999999998,431132.711,430633.242,430634.9000000004,430649.916,431465.801,,,
stimulus,canvas.Screen,0_11_1_1,2022-07-15T14:27:47.813Z,,,,,,6,573.6990000000224,response,,0.515,0.515,,,https://raw.githubusercontent.com/carero2/loss-perception/main/png/0.515blue1yellowb%3D1w%3D100v%3D58.png,https://raw.githubusercontent.com/carero2/loss-perception/main/png/0.485blue1yellowb%3D1w%3D100v%3D58.png,,,,,,,,,true,j,keypress(j),0.485,0.485,false,432041.5,432039.5,431132.711,431478.7000000002,431465.801,432064.984,,,
choice,canvas.Screen,0_11_1_2,2022-07-15T14:27:48.820Z,,,,0.485,,6,999.7339999999967,timeout,,,0.515,,0.515,,,-3,,0,,,,,,,,,,0.485,false,433048.9000000004,433047.682,432048.98,432059.9000000004,432064.984,433064.718,124,,
ITI,canvas.Screen,0_11_1_3,2022-07-15T14:27:49.320Z,,,2585,,,6,498.9340000000084,timeout,,,0.515,,,,,,,,,,,,,,,,,0.485,false,433548.4000000004,433547.214,433047.682,433049.10000000056,433064.718,433563.652,,,
trial,flow.Sequence,0_11_1,2022-07-15T14:27:49.320Z,,,,,,6,2897.2979999999516,completion,,,0.515,,,,,,,,,,,,,,,,,0.485,false,433548.7000000002,433547.214,430633.242,430634.7999999998,430649.916,433563.652,,,
fixation,canvas.Screen,0_11_2_0,2022-07-15T14:27:49.819Z,,,,,,6,716.0289999999804,timeout,,,0.485,,,,,,,,,,,,,,,,,0.455,false,434047.9000000004,434046.738,433547.214,433548.9000000004,433563.652,434279.681,,,
stimulus,canvas.Screen,0_11_2_1,2022-07-15T14:27:50.677Z,,,,,,6,624.2190000003902,response,,0.485,0.485,,,https://raw.githubusercontent.com/carero2/loss-perception/main/png/0.485blue1yellowb%3D1w%3D100v%3D17.png,https://raw.githubusercontent.com/carero2/loss-perception/main/png/0.455blue1yellowb%3D1w%3D100v%3D17.png,,,,,,,,,true,j,keypress(j),0.455,0.455,false,434905.60000000056,434903.9000000004,434046.738,434287,434279.681,434928.998,,,
choice,canvas.Screen,0_11_2_2,2022-07-15T14:27:51.684Z,,,,0.455,,6,999.1419999999925,timeout,,,0.485,,0.485,,,-9,,-9,,,,,,,,,,0.455,false,435912.4000000004,435911.398,434912.684,434922.60000000056,434928.998,435928.14,115,,
ITI,canvas.Screen,0_11_2_3,2022-07-15T14:27:52.184Z,,,2419,,,6,499.5799999999581,timeout,,,0.485,,,,,,,,,,,,,,,,,0.455,false,436412.2000000002,436411.187,435911.398,435912.7000000002,435928.14,436427.72,,,
trial,flow.Sequence,0_11_2,2022-07-15T14:27:52.184Z,,,,,,6,2847.5349999999744,completion,,,0.485,,,,,,,,,,,,,,,,,0.455,false,436412.60000000056,436411.187,433547.214,433548.9000000004,433563.652,436427.72,,,
fixation,canvas.Screen,0_11_3_0,2022-07-15T14:27:52.683Z,,,,,,2,732.7580000000307,timeout,,,0.505,,,,,,,,,,,,,,,,,0.495,false,436911.7000000002,436910.66,436411.187,436412.9000000004,436427.72,437160.478,,,
stimulus,canvas.Screen,0_11_3_1,2022-07-15T14:27:53.595Z,,,,,,2,661.0219999999972,response,,0.505,0.505,,,https://raw.githubusercontent.com/carero2/loss-perception/main/png/0.505blue1yellowb%3D1w%3D100v%3D91.png,https://raw.githubusercontent.com/carero2/loss-perception/main/png/0.495blue1yellowb%3D1w%3D100v%3D91.png,,,,,,,,,true,j,keypress(j),0.495,0.495,false,437823.7999999998,437821.5,436910.66,437171.7000000002,437160.478,437859.821,,,
choice,canvas.Screen,0_11_3_2,2022-07-15T14:27:54.615Z,,,,0.495,,2,999.4130000000005,timeout,,,0.505,,0.505,,,-1,,-10,,,,,,,,,,0.495,false,438843.2999999998,438842.245,437843.275,437849,437859.821,438859.234,114,,
ITI,canvas.Screen,0_11_3_3,2022-07-15T14:27:55.114Z,,,2227,,,2,499.1170000000275,timeout,,,0.505,,,,,,,,,,,,,,,,,0.495,false,439342.7999999998,439341.714,438842.245,438843.60000000056,438859.234,439358.351,,,
