sender,sender_type,sender_id,timestamp,meta,,ITI_value,choice,consent,diff_net_value,duration,ended_on,gain_color,left,left_side,loss_color,not_choice,picture_left,picture_right,points,points1Block,points2Block,points3Block,points4Block,points5Block,points6Block,pointsBlock,responded,response,response_action,right,right_side,switch_sides,time_commit,time_end,time_render,time_run,time_show,time_switch,totalPoints,totalPoints_practice,url
welcome,html.Screen,0_0,2022-07-15T14:36:48.047Z,"{""labjs_version"":""20.2.4"",""labjs_build"":{""flavor"":""production"",""commit"":""f5b4a49f956347addd546a832a3327688c2c0fef""},""location"":""https://run.pavlovia.org/Rey/loss-perception/"",""userAgent"":""Mozilla/5.0 (Windows NT 10.0; Win64; x64; rv:102.0) Gecko/20100101 Firefox/102.0"",""platform"":""Win32"",""language"":""en-GB"",""locale"":""en-GB"",""timeZone"":""Europe/London"",""timezoneOffset"":-60,""screen_width"":1920,""screen_height"":1080,""scroll_width"":1920,""scroll_height"":879,""window_innerWidth"":1920,""window_innerHeight"":927,""devicePixelRatio"":1}",,,,,,2022.08,response,blue,,,yellow,,,,,0,0,0,0,0,0,0,,Continue,click #Continue,,,,7212,7203,5164.24,5151,5180.92,7214.26,100,100,{}
consent,html.Form,0_1,2022-07-15T14:36:56.504Z,,,,,true,,8454.74,form submission,,,,,,,,,,,,,,,,,,,,,,15669,15669,7211.68,7212,7214.26,15664.26,,,
ProlificID,html.Form,0_2,2022-07-15T14:37:08.739Z,,,,,,,12238.74,form submission,,,,,,,,,,,,,,,,,,,,,,27904,27903,15662.7,15670,15664.26,27914.26,,,
instructions,html.Form,0_3,2022-07-15T14:38:07.007Z,,,,,,,58256.740000000005,form submission,,,,,,,,,,,,,,,,,,,,,,86173,86171,27902.7,27904,27914.26,86180.96,,,
Practice,canvas.Screen,0_4,2022-07-15T14:38:12.032Z,,,,,,,5007.039999999994,response,,,,,,,,,,,,,,,,,space,keypress(Space),,,,91197,91188,86170.62,86173,86180.96,91197.9,,,
fixation,canvas.Screen,0_5_0_0,2022-07-15T14:38:12.516Z,,,,,,6,499.74000000000524,timeout,,,0.485,,,,,,,,,,,,,,,,,0.455,false,91681,91680.96,91197.84,91198,91197.9,91697.64,,,
stimulus,canvas.Screen,0_5_0_1,2022-07-15T14:38:13.712Z,,,,,,6,1177.3600000000006,response,,0.485,0.485,,,https://raw.githubusercontent.com/carero2/loss-perception/main/png/0.485blue1yellowb%3D1w%3D100v%3D79.png,https://raw.githubusercontent.com/carero2/loss-perception/main/png/0.455blue1yellowb%3D1w%3D100v%3D79.png,,,,,,,,,true,j,keypress(j),0.455,0.455,false,92878,92875,91680.96,91681,91697.64,92880.68,,,
choice,canvas.Screen,0_5_0_2,2022-07-15T14:38:15.699Z,,,,0.455,,6,2000.300000000003,timeout,,,0.485,,0.485,,,-9,,,,,,,-9,,,,,0.455,false,94865,94864.32,92880.62,92881,92880.68,94880.98,,91,
timeout,canvas.Screen,0_5_0_3,2022-07-15T14:38:15.701Z,,,,,,6,NaN,skipped,,,0.485,,,,,,,,,,,,,,,,,0.455,false,94866,94864.32,,94866,,94880.98,,,
ITI,canvas.Screen,0_5_0_4,2022-07-15T14:38:16.199Z,,,,,,6,500,timeout,,,0.485,,,,,,,,,,,,,,,,,0.455,false,95364,95364.32,94864.32,94866,94880.98,95380.98,,,
trial,flow.Sequence,0_5_0,2022-07-15T14:38:16.200Z,,,,,,6,4166.420000000013,completion,,,0.485,,,,,,,,,,,,,,,,,0.455,false,95364,95364.32,91197.84,91198,91197.9,95380.98,,,
fixation,canvas.Screen,0_5_1_0,2022-07-15T14:38:16.699Z,,,,,,18,500,timeout,,,0.545,,,,,,,,,,,,,,,,,0.455,false,95865,95864.3,95364.32,95365,95380.98,95880.98,,,
stimulus,canvas.Screen,0_5_1_1,2022-07-15T14:38:17.600Z,,,,,,18,869.0200000000041,response,,0.545,0.545,,,https://raw.githubusercontent.com/carero2/loss-perception/main/png/0.545blue1yellowb%3D1w%3D100v%3D31.png,https://raw.githubusercontent.com/carero2/loss-perception/main/png/0.455blue1yellowb%3D1w%3D100v%3D31.png,,,,,,,,,true,j,keypress(j),0.455,0.455,false,96766,96750,95864.3,95865,95880.98,96767.34,,,
choice,canvas.Screen,0_5_1_2,2022-07-15T14:38:19.582Z,,,,0.455,,18,1996.9600000000064,timeout,,,0.545,,0.545,,,-9,,,,,,,-18,,,,,0.455,false,98748,98747.64,96767.28,96768,96767.34,98764.3,,82,
timeout,canvas.Screen,0_5_1_3,2022-07-15T14:38:19.584Z,,,,,,18,NaN,skipped,,,0.545,,,,,,,,,,,,,,,,,0.455,false,98749,98747.64,,98749,,98764.3,,,
ITI,canvas.Screen,0_5_1_4,2022-07-15T14:38:20.083Z,,,,,,18,500,timeout,,,0.545,,,,,,,,,,,,,,,,,0.455,false,99247,99247.64,98747.64,98749,98764.3,99264.3,,,
trial,flow.Sequence,0_5_1,2022-07-15T14:38:20.083Z,,,,,,18,3866.6600000000035,completion,,,0.545,,,,,,,,,,,,,,,,,0.455,false,99249,99247.64,95364.32,95365,95380.98,99264.3,,,
fixation,canvas.Screen,0_5_2_0,2022-07-15T14:38:20.583Z,,,,,,6,500.0200000000041,timeout,,,0.515,,,,,,,,,,,,,,,,,0.485,false,99748,99747.64,99247.64,99249,99264.3,99764.32,,,
stimulus,canvas.Screen,0_5_2_1,2022-07-15T14:38:21.936Z,,,,,,6,1329.679999999993,response,,0.515,0.515,,,https://raw.githubusercontent.com/carero2/loss-perception/main/png/0.515blue1yellowb%3D1w%3D100v%3D11.png,https://raw.githubusercontent.com/carero2/loss-perception/main/png/0.485blue1yellowb%3D1w%3D100v%3D11.png,,,,,,,,,true,f,keypress(f),0.485,0.485,false,101101,101094,99747.64,99749,99764.32,101103.28,,,
choice,canvas.Screen,0_5_2_2,2022-07-15T14:38:23.915Z,,,,0.515,,6,1994.3800000000047,timeout,,,0.515,,0.485,,,3,,,,,,,-15,,,,,0.485,false,103081,103081,101103.22,101103,101103.28,103097.66,,85,
timeout,canvas.Screen,0_5_2_3,2022-07-15T14:38:23.917Z,,,,,,6,NaN,skipped,,,0.515,,,,,,,,,,,,,,,,,0.485,false,103082,103081,,103082,,103097.66,,,
ITI,canvas.Screen,0_5_2_4,2022-07-15T14:38:24.416Z,,,,,,6,499.9799999999959,timeout,,,0.515,,,,,,,,,,,,,,,,,0.485,false,103581,103580.98,103081,103082,103097.66,103597.64,,,
trial,flow.Sequence,0_5_2,2022-07-15T14:38:24.416Z,,,,,,6,4316.679999999993,completion,,,0.515,,,,,,,,,,,,,,,,,0.485,false,103581,103580.98,99247.64,99249,99264.3,103597.64,,,
fixation,canvas.Screen,0_5_3_0,2022-07-15T14:38:24.916Z,,,,,,9,500,timeout,,,0.485,,,,,,,,,,,,,,,,,0.53,true,104081,104080.98,103580.98,103581,103597.64,104097.64,,,
stimulus,canvas.Screen,0_5_3_1,2022-07-15T14:38:26.640Z,,,,,,9,1699.3600000000006,response,,0.53,0.485,,,https://raw.githubusercontent.com/carero2/loss-perception/main/png/0.53blue1yellowb%3D1w%3D100v%3D88.png,https://raw.githubusercontent.com/carero2/loss-perception/main/png/0.485blue1yellowb%3D1w%3D100v%3D88.png,,,,,,,,,true,j,keypress(j),0.485,0.53,true,105806,105797,104080.98,104082,104097.64,105807.68,,,
choice,canvas.Screen,0_5_3_2,2022-07-15T14:38:28.633Z,,,,0.485,,9,2006.640000000014,timeout,,,0.485,,0.53,,,-3,,,,,,,-18,,,,,0.53,true,107798,107797.64,105807.62,105808,105807.68,107814.32,,82,
timeout,canvas.Screen,0_5_3_3,2022-07-15T14:38:28.634Z,,,,,,9,NaN,skipped,,,0.485,,,,,,,,,,,,,,,,,0.53,true,107798,107797.64,,107798,,107814.32,,,
ITI,canvas.Screen,0_5_3_4,2022-07-15T14:38:29.133Z,,,,,,9,500,timeout,,,0.485,,,,,,,,,,,,,,,,,0.53,true,108297,108297.64,107797.64,107799,107814.32,108314.32,,,
trial,flow.Sequence,0_5_3,2022-07-15T14:38:29.133Z,,,,,,9,4700,completion,,,0.485,,,,,,,,,,,,,,,,,0.53,true,108298,108297.64,103580.98,103581,103597.64,108314.32,,,
fixation,canvas.Screen,0_5_4_0,2022-07-15T14:38:29.633Z,,,,,,6,500,timeout,,,0.545,,,,,,,,,,,,,,,,,0.515,true,108798,108797.64,108297.64,108298,108314.32,108814.32,,,
stimulus,canvas.Screen,0_5_4_1,2022-07-15T14:38:31.112Z,,,,,,6,1451.679999999993,response,,0.515,0.545,,,https://raw.githubusercontent.com/carero2/loss-perception/main/png/0.515blue1yellowb%3D1w%3D100v%3D10.png,https://raw.githubusercontent.com/carero2/loss-perception/main/png/0.545blue1yellowb%3D1w%3D100v%3D10.png,,,,,,,,,true,f,keypress(f),0.545,0.515,true,110277,110266,108797.64,108798,108814.32,110279.24,,,
choice,canvas.Screen,0_5_4_2,2022-07-15T14:38:33.099Z,,,,0.515,,6,2001.7399999999907,timeout,,,0.545,,0.545,,,3,,,,,,,-15,,,,,0.515,true,112265,112264.32,110279.16,110279,110279.24,112280.98,,85,
timeout,canvas.Screen,0_5_4_3,2022-07-15T14:38:33.100Z,,,,,,6,NaN,skipped,,,0.545,,,,,,,,,,,,,,,,,0.515,true,112266,112264.32,,112266,,112280.98,,,
ITI,canvas.Screen,0_5_4_4,2022-07-15T14:38:33.599Z,,,,,,6,500,timeout,,,0.545,,,,,,,,,,,,,,,,,0.515,true,112764,112764.32,112264.32,112266,112280.98,112780.98,,,
trial,flow.Sequence,0_5_4,2022-07-15T14:38:33.599Z,,,,,,6,4450,completion,,,0.545,,,,,,,,,,,,,,,,,0.515,true,112764,112764.32,108297.64,108298,108314.32,112780.98,,,
fixation,canvas.Screen,0_5_5_0,2022-07-15T14:38:34.099Z,,,,,,12,500,timeout,,,0.53,,,,,,,,,,,,,,,,,0.47,true,113265,113264.32,112764.32,112765,112780.98,113280.98,,,
stimulus,canvas.Screen,0_5_5_1,2022-07-15T14:38:35.160Z,,,,,,12,1032.020000000004,response,,0.47,0.53,,,https://raw.githubusercontent.com/carero2/loss-perception/main/png/0.47blue1yellowb%3D1w%3D100v%3D95.png,https://raw.githubusercontent.com/carero2/loss-perception/main/png/0.53blue1yellowb%3D1w%3D100v%3D95.png,,,,,,,,,true,f,keypress(f),0.53,0.47,true,114326,114313,113264.32,113265,113280.98,114328.8,,,
choice,canvas.Screen,0_5_5_2,2022-07-15T14:38:37.150Z,,,,0.47,,12,2002.179999999993,timeout,,,0.53,,0.53,,,-6,,,,,,,-21,,,,,0.47,true,116314,116314.32,114328.72,114329,114328.8,116330.98,,79,
timeout,canvas.Screen,0_5_5_3,2022-07-15T14:38:37.151Z,,,,,,12,NaN,skipped,,,0.53,,,,,,,,,,,,,,,,,0.47,true,116316,116314.32,,116316,,116330.98,,,
ITI,canvas.Screen,0_5_5_4,2022-07-15T14:38:37.649Z,,,,,,12,500.0200000000041,timeout,,,0.53,,,,,,,,,,,,,,,,,0.47,true,116815,116814.32,116314.32,116316,116330.98,116831,,,
trial,flow.Sequence,0_5_5,2022-07-15T14:38:37.650Z,,,,,,12,4033.340000000011,completion,,,0.53,,,,,,,,,,,,,,,,,0.47,true,116815,116814.32,112764.32,112765,112780.98,116831,,,
fixation,canvas.Screen,0_5_6_0,2022-07-15T14:38:38.149Z,,,,,,6,500,timeout,,,0.545,,,,,,,,,,,,,,,,,0.515,true,117315,117314.32,116814.32,116815,116831,117331,,,
stimulus,canvas.Screen,0_5_6_1,2022-07-15T14:38:39.136Z,,,,,,6,966,response,,0.515,0.545,,,https://raw.githubusercontent.com/carero2/loss-perception/main/png/0.515blue1yellowb%3D1w%3D100v%3D20.png,https://raw.githubusercontent.com/carero2/loss-perception/main/png/0.545blue1yellowb%3D1w%3D100v%3D20.png,,,,,,,,,true,j,keypress(j),0.545,0.515,true,118301,118297,117314.32,117315,117331,118303.38,,,
choice,canvas.Screen,0_5_6_2,2022-07-15T14:38:41.116Z,,,,0.545,,6,1994.2799999999988,timeout,,,0.545,,0.515,,,9,,,,,,,-12,,,,,0.515,true,120281,120281,118303.3,118303,118303.38,120297.66,,88,
timeout,canvas.Screen,0_5_6_3,2022-07-15T14:38:41.118Z,,,,,,6,NaN,skipped,,,0.545,,,,,,,,,,,,,,,,,0.515,true,120282,120281,,120282,,120297.66,,,
ITI,canvas.Screen,0_5_6_4,2022-07-15T14:38:41.616Z,,,,,,6,500,timeout,,,0.545,,,,,,,,,,,,,,,,,0.515,true,120782,120781,120281,120283,120297.66,120797.66,,,
trial,flow.Sequence,0_5_6,2022-07-15T14:38:41.616Z,,,,,,6,3950,completion,,,0.545,,,,,,,,,,,,,,,,,0.515,true,120782,120781,116814.32,116815,116831,120797.66,,,
fixation,canvas.Screen,0_5_7_0,2022-07-15T14:38:42.116Z,,,,,,9,500,timeout,,,0.485,,,,,,,,,,,,,,,,,0.53,true,121282,121281,120781,120782,120797.66,121297.66,,,
stimulus,canvas.Screen,0_5_7_1,2022-07-15T14:38:43.360Z,,,,,,9,1218.3399999999965,response,,0.53,0.485,,,https://raw.githubusercontent.com/carero2/loss-perception/main/png/0.53blue1yellowb%3D1w%3D100v%3D92.png,https://raw.githubusercontent.com/carero2/loss-perception/main/png/0.485blue1yellowb%3D1w%3D100v%3D92.png,,,,,,,,,true,f,keypress(f),0.485,0.53,true,122526,122516,121281,121282,121297.66,122526.92,,,
choice,canvas.Screen,0_5_7_2,2022-07-15T14:38:45.350Z,,,,0.53,,9,2004.0800000000017,timeout,,,0.485,,0.485,,,6,,,,,,,-6,,,,,0.53,true,124515,124514.34,122526.84,122527,122526.92,124531,,94,
timeout,canvas.Screen,0_5_7_3,2022-07-15T14:38:45.351Z,,,,,,9,NaN,skipped,,,0.485,,,,,,,,,,,,,,,,,0.53,true,124516,124514.34,,124516,,124531,,,
ITI,canvas.Screen,0_5_7_4,2022-07-15T14:38:45.849Z,,,,,,9,500,timeout,,,0.485,,,,,,,,,,,,,,,,,0.53,true,125015,125014.32,124514.34,124516,124531,125031,,,
trial,flow.Sequence,0_5_7,2022-07-15T14:38:45.849Z,,,,,,9,4216.6600000000035,completion,,,0.485,,,,,,,,,,,,,,,,,0.53,true,125015,125014.32,120781,120782,120797.66,125031,,,
fixation,canvas.Screen,0_5_8_0,2022-07-15T14:38:46.350Z,,,,,,12,500,timeout,,,0.53,,,,,,,,,,,,,,,,,0.47,false,125515,125514.32,125014.32,125015,125031,125531,,,
stimulus,canvas.Screen,0_5_8_1,2022-07-15T14:38:47.375Z,,,,,,12,1000,response,,0.53,0.53,,,https://raw.githubusercontent.com/carero2/loss-perception/main/png/0.53blue1yellowb%3D1w%3D100v%3D10.png,https://raw.githubusercontent.com/carero2/loss-perception/main/png/0.47blue1yellowb%3D1w%3D100v%3D10.png,,,,,,,,,true,f,keypress(f),0.47,0.47,false,126541,126531,125514.32,125515,125531,126543.38,,,
choice,canvas.Screen,0_5_8_2,2022-07-15T14:38:49.366Z,,,,0.53,,12,2004.2999999999884,timeout,,,0.53,,0.47,,,6,,,,,,,0,,,,,0.47,false,128531,128531,126543.3,126544,126543.38,128547.68,,100,
timeout,canvas.Screen,0_5_8_3,2022-07-15T14:38:49.367Z,,,,,,12,NaN,skipped,,,0.53,,,,,,,,,,,,,,,,,0.47,false,128533,128531,,128533,,128547.68,,,
ITI,canvas.Screen,0_5_8_4,2022-07-15T14:38:49.865Z,,,,,,12,499.9800000000105,timeout,,,0.53,,,,,,,,,,,,,,,,,0.47,false,129031,129031,128531,128533,128547.68,129047.66,,,
trial,flow.Sequence,0_5_8,2022-07-15T14:38:49.866Z,,,,,,12,4000,completion,,,0.53,,,,,,,,,,,,,,,,,0.47,false,129031,129031,125014.32,125015,125031,129047.66,,,
fixation,canvas.Screen,0_5_9_0,2022-07-15T14:38:50.366Z,,,,,,6,500,timeout,,,0.515,,,,,,,,,,,,,,,,,0.485,false,129532,129531,129031,129031,129047.66,129547.66,,,
stimulus,canvas.Screen,0_5_9_1,2022-07-15T14:38:52.024Z,,,,,,6,1640.3399999999965,response,,0.515,0.515,,,https://raw.githubusercontent.com/carero2/loss-perception/main/png/0.515blue1yellowb%3D1w%3D100v%3D2.png,https://raw.githubusercontent.com/carero2/loss-perception/main/png/0.485blue1yellowb%3D1w%3D100v%3D2.png,,,,,,,,,true,f,keypress(f),0.485,0.485,false,131190,131188,129531,129532,129547.66,131191.44,,,
choice,canvas.Screen,0_5_9_2,2022-07-15T14:38:54.016Z,,,,0.515,,6,2006.2200000000012,timeout,,,0.515,,0.485,,,3,,,,,,,3,,,,,0.485,false,133182,133181,131191.34,131191,131191.44,133197.66,,103,
timeout,canvas.Screen,0_5_9_3,2022-07-15T14:38:54.017Z,,,,,,6,NaN,skipped,,,0.515,,,,,,,,,,,,,,,,,0.485,false,133182,133181,,133182,,133197.66,,,
ITI,canvas.Screen,0_5_9_4,2022-07-15T14:38:54.516Z,,,,,,6,500,timeout,,,0.515,,,,,,,,,,,,,,,,,0.485,false,133681,133681,133181,133182,133197.66,133697.66,,,
trial,flow.Sequence,0_5_9,2022-07-15T14:38:54.516Z,,,,,,6,4633.3399999999965,completion,,,0.515,,,,,,,,,,,,,,,,,0.485,false,133681,133681,129031,129031,129047.66,133697.66,,,
fixation,canvas.Screen,0_5_10_0,2022-07-15T14:38:55.016Z,,,,,,6,500,timeout,,,0.485,,,,,,,,,,,,,,,,,0.455,false,134181,134181,133681,133681,133697.66,134197.66,,,
stimulus,canvas.Screen,0_5_10_1,2022-07-15T14:38:56.064Z,,,,,,6,1021.3399999999965,response,,0.485,0.485,,,https://raw.githubusercontent.com/carero2/loss-perception/main/png/0.485blue1yellowb%3D1w%3D100v%3D79.png,https://raw.githubusercontent.com/carero2/loss-perception/main/png/0.455blue1yellowb%3D1w%3D100v%3D79.png,,,,,,,,,true,f,keypress(f),0.455,0.455,false,135229,135219,134181,134182,134197.66,135230.86,,,
choice,canvas.Screen,0_5_10_2,2022-07-15T14:38:58.049Z,,,,0.485,,6,2000.140000000014,timeout,,,0.485,,0.455,,,-3,,,,,,,0,,,,,0.455,false,137214,137214.34,135230.78,135231,135230.86,137231,,100,
timeout,canvas.Screen,0_5_10_3,2022-07-15T14:38:58.050Z,,,,,,6,NaN,skipped,,,0.485,,,,,,,,,,,,,,,,,0.455,false,137215,137214.34,,137215,,137231,,,
ITI,canvas.Screen,0_5_10_4,2022-07-15T14:38:58.549Z,,,,,,6,500,timeout,,,0.485,,,,,,,,,,,,,,,,,0.455,false,137715,137714.34,137214.34,137215,137231,137731,,,
trial,flow.Sequence,0_5_10,2022-07-15T14:38:58.549Z,,,,,,6,4016.679999999993,completion,,,0.485,,,,,,,,,,,,,,,,,0.455,false,137715,137714.34,133681,133681,133697.66,137731,,,
fixation,canvas.Screen,0_5_11_0,2022-07-15T14:38:59.049Z,,,,,,18,500,timeout,,,0.545,,,,,,,,,,,,,,,,,0.455,true,138214,138214.34,137714.34,137715,137731,138231,,,
stimulus,canvas.Screen,0_5_11_1,2022-07-15T14:38:59.832Z,,,,,,18,753,response,,0.455,0.545,,,https://raw.githubusercontent.com/carero2/loss-perception/main/png/0.455blue1yellowb%3D1w%3D100v%3D89.png,https://raw.githubusercontent.com/carero2/loss-perception/main/png/0.545blue1yellowb%3D1w%3D100v%3D89.png,,,,,,,,,true,j,keypress(j),0.545,0.455,true,138997,138984,138214.34,138214,138231,138998.68,,,
choice,canvas.Screen,0_5_11_2,2022-07-15T14:39:01.816Z,,,,0.545,,18,1999,timeout,,,0.545,,0.455,,,9,,,,,,,9,,,,,0.455,true,140981,140981,138998.62,138999,138998.68,140997.68,,109,
timeout,canvas.Screen,0_5_11_3,2022-07-15T14:39:01.816Z,,,,,,18,NaN,skipped,,,0.545,,,,,,,,,,,,,,,,,0.455,true,140982,140981,,140982,,140997.68,,,
ITI,canvas.Screen,0_5_11_4,2022-07-15T14:39:02.316Z,,,,,,18,499.9800000000105,timeout,,,0.545,,,,,,,,,,,,,,,,,0.455,true,141481,141481,140981,140982,140997.68,141497.66,,,
trial,flow.Sequence,0_5_11,2022-07-15T14:39:02.316Z,,,,,,18,3750,completion,,,0.545,,,,,,,,,,,,,,,,,0.455,true,141482,141481,137714.34,137715,137731,141497.66,,,
fixation,canvas.Screen,0_5_12_0,2022-07-15T14:39:02.816Z,,,,,,9,500,timeout,,,0.485,,,,,,,,,,,,,,,,,0.53,false,141981,141981,141481,141482,141497.66,141997.66,,,
stimulus,canvas.Screen,0_5_12_1,2022-07-15T14:39:03.647Z,,,,,,9,799.3399999999965,response,,0.485,0.485,,,https://raw.githubusercontent.com/carero2/loss-perception/main/png/0.485blue1yellowb%3D1w%3D100v%3D3.png,https://raw.githubusercontent.com/carero2/loss-perception/main/png/0.53blue1yellowb%3D1w%3D100v%3D3.png,,,,,,,,,true,j,keypress(j),0.53,0.53,false,142813,142797,141981,141981,141997.66,142815.24,,,
choice,canvas.Screen,0_5_12_2,2022-07-15T14:39:05.633Z,,,,0.53,,9,1999.1000000000058,timeout,,,0.485,,0.485,,,6,,,,,,,15,,,,,0.53,false,144798,144797.66,142815.18,142815,142815.24,144814.34,,115,
timeout,canvas.Screen,0_5_12_3,2022-07-15T14:39:05.634Z,,,,,,9,NaN,skipped,,,0.485,,,,,,,,,,,,,,,,,0.53,false,144799,144797.66,,144799,,144814.34,,,
ITI,canvas.Screen,0_5_12_4,2022-07-15T14:39:06.133Z,,,,,,9,500,timeout,,,0.485,,,,,,,,,,,,,,,,,0.53,false,145298,145297.66,144797.66,144799,144814.34,145314.34,,,
trial,flow.Sequence,0_5_12,2022-07-15T14:39:06.133Z,,,,,,9,3800,completion,,,0.485,,,,,,,,,,,,,,,,,0.53,false,145298,145297.66,141481,141482,141497.66,145314.34,,,
fixation,canvas.Screen,0_5_13_0,2022-07-15T14:39:06.633Z,,,,,,18,500,timeout,,,0.545,,,,,,,,,,,,,,,,,0.455,true,145798,145797.68,145297.66,145298,145314.34,145814.34,,,
stimulus,canvas.Screen,0_5_13_1,2022-07-15T14:39:07.296Z,,,,,,18,638.6600000000035,response,,0.455,0.545,,,https://raw.githubusercontent.com/carero2/loss-perception/main/png/0.455blue1yellowb%3D1w%3D100v%3D26.png,https://raw.githubusercontent.com/carero2/loss-perception/main/png/0.545blue1yellowb%3D1w%3D100v%3D26.png,,,,,,,,,true,j,keypress(j),0.545,0.455,true,146461,146453,145797.68,145798,145814.34,146462.84,,,
choice,canvas.Screen,0_5_13_2,2022-07-15T14:39:09.283Z,,,,0.545,,18,2001.5,timeout,,,0.545,,0.455,,,9,,,,,,,24,,,,,0.455,true,148448,148447.68,146462.78,146462,146462.84,148464.34,,124,
timeout,canvas.Screen,0_5_13_3,2022-07-15T14:39:09.284Z,,,,,,18,NaN,skipped,,,0.545,,,,,,,,,,,,,,,,,0.455,true,148449,148447.68,,148449,,148464.34,,,
ITI,canvas.Screen,0_5_13_4,2022-07-15T14:39:09.783Z,,,,,,18,500,timeout,,,0.545,,,,,,,,,,,,,,,,,0.455,true,148948,148947.68,148447.68,148449,148464.34,148964.34,,,
trial,flow.Sequence,0_5_13,2022-07-15T14:39:09.783Z,,,,,,18,3633.3399999999965,completion,,,0.545,,,,,,,,,,,,,,,,,0.455,true,148948,148947.68,145297.66,145298,145314.34,148964.34,,,
fixation,canvas.Screen,0_5_14_0,2022-07-15T14:39:10.282Z,,,,,,6,500,timeout,,,0.545,,,,,,,,,,,,,,,,,0.515,false,149448,149447.68,148947.68,148948,148964.34,149464.34,,,
stimulus,canvas.Screen,0_5_14_1,2022-07-15T14:39:11.335Z,,,,,,6,1035.6600000000035,response,,0.545,0.545,,,https://raw.githubusercontent.com/carero2/loss-perception/main/png/0.545blue1yellowb%3D1w%3D100v%3D74.png,https://raw.githubusercontent.com/carero2/loss-perception/main/png/0.515blue1yellowb%3D1w%3D100v%3D74.png,,,,,,,,,true,f,keypress(f),0.515,0.515,false,150501,150500,149447.68,149448,149464.34,150502.6,,,
choice,canvas.Screen,0_5_14_2,2022-07-15T14:39:13.316Z,,,,0.545,,6,1995.0799999999872,timeout,,,0.545,,0.515,,,9,,,,,,,33,,,,,0.515,false,152481,152481,150502.54,150503,150502.6,152497.68,,133,
timeout,canvas.Screen,0_5_14_3,2022-07-15T14:39:13.317Z,,,,,,6,NaN,skipped,,,0.545,,,,,,,,,,,,,,,,,0.515,false,152482,152481,,152482,,152497.68,,,
ITI,canvas.Screen,0_5_14_4,2022-07-15T14:39:13.815Z,,,,,,6,500,timeout,,,0.545,,,,,,,,,,,,,,,,,0.515,false,152981,152981,152481,152482,152497.68,152997.68,,,
trial,flow.Sequence,0_5_14,2022-07-15T14:39:13.815Z,,,,,,6,4016.6600000000035,completion,,,0.545,,,,,,,,,,,,,,,,,0.515,false,152981,152981,148947.68,148948,148964.34,152997.68,,,
fixation,canvas.Screen,0_5_15_0,2022-07-15T14:39:14.316Z,,,,,,6,500,timeout,,,0.485,,,,,,,,,,,,,,,,,0.455,true,153482,153481,152981,152981,152997.68,153497.68,,,
stimulus,canvas.Screen,0_5_15_1,2022-07-15T14:39:15.087Z,,,,,,6,752.320000000007,response,,0.455,0.485,,,https://raw.githubusercontent.com/carero2/loss-perception/main/png/0.455blue1yellowb%3D1w%3D100v%3D76.png,https://raw.githubusercontent.com/carero2/loss-perception/main/png/0.485blue1yellowb%3D1w%3D100v%3D76.png,,,,,,,,,true,f,keypress(f),0.485,0.455,true,154254,154250,153481,153482,153497.68,154254.6,,,
choice,canvas.Screen,0_5_15_2,2022-07-15T14:39:17.066Z,,,,0.455,,6,1993.0799999999872,timeout,,,0.485,,0.485,,,-9,,,,,,,24,,,,,0.455,true,156232,156231.02,154254.54,154255,154254.6,156247.68,,124,
timeout,canvas.Screen,0_5_15_3,2022-07-15T14:39:17.069Z,,,,,,6,NaN,skipped,,,0.485,,,,,,,,,,,,,,,,,0.455,true,156234,156231.02,,156234,,156247.68,,,
ITI,canvas.Screen,0_5_15_4,2022-07-15T14:39:17.566Z,,,,,,6,500,timeout,,,0.485,,,,,,,,,,,,,,,,,0.455,true,156732,156731.02,156231.02,156234,156247.68,156747.68,,,
trial,flow.Sequence,0_5_15,2022-07-15T14:39:17.566Z,,,,,,6,3733.3399999999965,completion,,,0.485,,,,,,,,,,,,,,,,,0.455,true,156732,156731.02,152981,152981,152997.68,156747.68,,,
fixation,canvas.Screen,0_5_16_0,2022-07-15T14:39:18.066Z,,,,,,12,500,timeout,,,0.53,,,,,,,,,,,,,,,,,0.47,true,157231,157231.02,156731.02,156732,156747.68,157247.68,,,
stimulus,canvas.Screen,0_5_16_1,2022-07-15T14:39:18.896Z,,,,,,12,799.320000000007,response,,0.47,0.53,,,https://raw.githubusercontent.com/carero2/loss-perception/main/png/0.47blue1yellowb%3D1w%3D100v%3D77.png,https://raw.githubusercontent.com/carero2/loss-perception/main/png/0.53blue1yellowb%3D1w%3D100v%3D77.png,,,,,,,,,true,j,keypress(j),0.53,0.47,true,158061,158047,157231.02,157231,157247.68,158064.08,,,
choice,canvas.Screen,0_5_16_2,2022-07-15T14:39:20.883Z,,,,0.53,,12,2000.2799999999988,timeout,,,0.53,,0.47,,,6,,,,,,,30,,,,,0.47,true,160048,160047.68,158064.02,158064,158064.08,160064.36,,130,
timeout,canvas.Screen,0_5_16_3,2022-07-15T14:39:20.884Z,,,,,,12,NaN,skipped,,,0.53,,,,,,,,,,,,,,,,,0.47,true,160049,160047.68,,160049,,160064.36,,,
ITI,canvas.Screen,0_5_16_4,2022-07-15T14:39:21.383Z,,,,,,12,500,timeout,,,0.53,,,,,,,,,,,,,,,,,0.47,true,160548,160547.68,160047.68,160049,160064.36,160564.36,,,
trial,flow.Sequence,0_5_16,2022-07-15T14:39:21.383Z,,,,,,12,3800,completion,,,0.53,,,,,,,,,,,,,,,,,0.47,true,160548,160547.68,156731.02,156732,156747.68,160564.36,,,
fixation,canvas.Screen,0_5_17_0,2022-07-15T14:39:21.883Z,,,,,,6,500,timeout,,,0.515,,,,,,,,,,,,,,,,,0.485,true,161048,161047.68,160547.68,160549,160564.36,161064.36,,,
stimulus,canvas.Screen,0_5_17_1,2022-07-15T14:39:23.280Z,,,,,,6,1373.640000000014,response,,0.485,0.515,,,https://raw.githubusercontent.com/carero2/loss-perception/main/png/0.485blue1yellowb%3D1w%3D100v%3D31.png,https://raw.githubusercontent.com/carero2/loss-perception/main/png/0.515blue1yellowb%3D1w%3D100v%3D31.png,,,,,,,,,true,j,keypress(j),0.515,0.485,true,162445,162438,161047.68,161048,161064.36,162447.36,,,
choice,canvas.Screen,0_5_17_2,2022-07-15T14:39:25.266Z,,,,0.515,,6,2000.320000000007,timeout,,,0.515,,0.485,,,3,,,,,,,33,,,,,0.485,true,164431,164431.02,162447.3,162447,162447.36,164447.68,,133,
timeout,canvas.Screen,0_5_17_3,2022-07-15T14:39:25.267Z,,,,,,6,NaN,skipped,,,0.515,,,,,,,,,,,,,,,,,0.485,true,164432,164431.02,,164432,,164447.68,,,
ITI,canvas.Screen,0_5_17_4,2022-07-15T14:39:25.766Z,,,,,,6,500,timeout,,,0.515,,,,,,,,,,,,,,,,,0.485,true,164931,164931.02,164431.02,164432,164447.68,164947.68,,,
trial,flow.Sequence,0_5_17,2022-07-15T14:39:25.766Z,,,,,,6,4366.6600000000035,completion,,,0.515,,,,,,,,,,,,,,,,,0.485,true,164931,164931.02,160547.68,160548,160564.36,164947.68,,,
fixation,canvas.Screen,0_5_18_0,2022-07-15T14:39:26.265Z,,,,,,6,500,timeout,,,0.485,,,,,,,,,,,,,,,,,0.455,true,165431,165431.02,164931.02,164931,164947.68,165447.68,,,
stimulus,canvas.Screen,0_5_18_1,2022-07-15T14:39:27.008Z,,,,,,6,709.320000000007,response,,0.455,0.485,,,https://raw.githubusercontent.com/carero2/loss-perception/main/png/0.455blue1yellowb%3D1w%3D100v%3D12.png,https://raw.githubusercontent.com/carero2/loss-perception/main/png/0.485blue1yellowb%3D1w%3D100v%3D12.png,,,,,,,,,true,f,keypress(f),0.485,0.455,true,166174,166157,165431.02,165431,165447.68,166175.88,,,
choice,canvas.Screen,0_5_18_2,2022-07-15T14:39:29.000Z,,,,0.455,,6,2005.1399999999849,timeout,,,0.485,,0.485,,,-9,,,,,,,24,,,,,0.455,true,168164,168164.36,166175.82,166176,166175.88,168181.02,,124,
timeout,canvas.Screen,0_5_18_3,2022-07-15T14:39:29.000Z,,,,,,6,NaN,skipped,,,0.485,,,,,,,,,,,,,,,,,0.455,true,168166,168164.36,,168165,,168181.02,,,
ITI,canvas.Screen,0_5_18_4,2022-07-15T14:39:29.500Z,,,,,,6,500,timeout,,,0.485,,,,,,,,,,,,,,,,,0.455,true,168665,168664.36,168164.36,168166,168181.02,168681.02,,,
trial,flow.Sequence,0_5_18,2022-07-15T14:39:29.500Z,,,,,,6,3716.679999999993,completion,,,0.485,,,,,,,,,,,,,,,,,0.455,true,168665,168664.36,164931.02,164931,164947.68,168681.02,,,
fixation,canvas.Screen,0_5_19_0,2022-07-15T14:39:29.999Z,,,,,,9,500,timeout,,,0.485,,,,,,,,,,,,,,,,,0.53,true,169165,169164.36,168664.36,168665,168681.02,169181.02,,,
stimulus,canvas.Screen,0_5_19_1,2022-07-15T14:39:30.928Z,,,,,,9,896.9800000000105,response,,0.53,0.485,,,https://raw.githubusercontent.com/carero2/loss-perception/main/png/0.53blue1yellowb%3D1w%3D100v%3D17.png,https://raw.githubusercontent.com/carero2/loss-perception/main/png/0.485blue1yellowb%3D1w%3D100v%3D17.png,,,,,,,,,true,f,keypress(f),0.485,0.53,true,170093,170078,169164.36,169165,169181.02,170095.48,,,
choice,canvas.Screen,0_5_19_2,2022-07-15T14:39:32.916Z,,,,0.53,,9,2002.2200000000012,timeout,,,0.485,,0.485,,,6,,,,,,,30,,,,,0.53,true,172081,172081.02,170095.42,170096,170095.48,172097.7,,130,
timeout,canvas.Screen,0_5_19_3,2022-07-15T14:39:32.917Z,,,,,,9,NaN,skipped,,,0.485,,,,,,,,,,,,,,,,,0.53,true,172082,172081.02,,172082,,172097.7,,,
ITI,canvas.Screen,0_5_19_4,2022-07-15T14:39:33.416Z,,,,,,9,499.9799999999814,timeout,,,0.485,,,,,,,,,,,,,,,,,0.53,true,172581,172581.02,172081.02,172082,172097.7,172597.68,,,
trial,flow.Sequence,0_5_19,2022-07-15T14:39:33.416Z,,,,,,9,3900,completion,,,0.485,,,,,,,,,,,,,,,,,0.53,true,172581,172581.02,168664.36,168665,168681.02,172597.68,,,
fixation,canvas.Screen,0_5_20_0,2022-07-15T14:39:33.916Z,,,,,,6,500,timeout,,,0.545,,,,,,,,,,,,,,,,,0.515,true,173081,173081.02,172581.02,172581,172597.68,173097.68,,,
stimulus,canvas.Screen,0_5_20_1,2022-07-15T14:39:34.648Z,,,,,,6,699.320000000007,response,,0.515,0.545,,,https://raw.githubusercontent.com/carero2/loss-perception/main/png/0.515blue1yellowb%3D1w%3D100v%3D37.png,https://raw.githubusercontent.com/carero2/loss-perception/main/png/0.545blue1yellowb%3D1w%3D100v%3D37.png,,,,,,,,,true,j,keypress(j),0.545,0.515,true,173813,173797,173081.02,173081,173097.68,173815.06,,,
choice,canvas.Screen,0_5_20_2,2022-07-15T14:39:36.632Z,,,,0.545,,6,1999.2999999999884,timeout,,,0.545,,0.515,,,9,,,,,,,39,,,,,0.515,true,175798,175797.68,173815,173815,173815.06,175814.36,,139,
timeout,canvas.Screen,0_5_20_3,2022-07-15T14:39:36.634Z,,,,,,6,NaN,skipped,,,0.545,,,,,,,,,,,,,,,,,0.515,true,175799,175797.68,,175799,,175814.36,,,
ITI,canvas.Screen,0_5_20_4,2022-07-15T14:39:37.132Z,,,,,,6,500,timeout,,,0.545,,,,,,,,,,,,,,,,,0.515,true,176298,176297.7,175797.68,175799,175814.36,176314.36,,,
trial,flow.Sequence,0_5_20,2022-07-15T14:39:37.132Z,,,,,,6,3700.0200000000186,completion,,,0.545,,,,,,,,,,,,,,,,,0.515,true,176298,176297.7,172581.02,172581,172597.68,176314.36,,,
fixation,canvas.Screen,0_5_21_0,2022-07-15T14:39:37.633Z,,,,,,18,500,timeout,,,0.545,,,,,,,,,,,,,,,,,0.455,false,176798,176797.7,176297.7,176298,176314.36,176814.36,,,
stimulus,canvas.Screen,0_5_21_1,2022-07-15T14:39:38.416Z,,,,,,18,763.640000000014,response,,0.545,0.545,,,https://raw.githubusercontent.com/carero2/loss-perception/main/png/0.545blue1yellowb%3D1w%3D100v%3D56.png,https://raw.githubusercontent.com/carero2/loss-perception/main/png/0.455blue1yellowb%3D1w%3D100v%3D56.png,,,,,,,,,true,f,keypress(f),0.455,0.455,false,177582,177578,176797.7,176798,176814.36,177583.24,,,
choice,canvas.Screen,0_5_21_2,2022-07-15T14:39:40.399Z,,,,0.545,,18,1997.8000000000175,timeout,,,0.545,,0.455,,,9,,,,,,,48,,,,,0.455,false,179565,179564.36,177583.18,177583,177583.24,179581.04,,148,
timeout,canvas.Screen,0_5_21_3,2022-07-15T14:39:40.400Z,,,,,,18,NaN,skipped,,,0.545,,,,,,,,,,,,,,,,,0.455,false,179566,179564.36,,179566,,179581.04,,,
ITI,canvas.Screen,0_5_21_4,2022-07-15T14:39:40.899Z,,,,,,18,499.9799999999814,timeout,,,0.545,,,,,,,,,,,,,,,,,0.455,false,180065,180064.36,179564.36,179566,179581.04,180081.02,,,
trial,flow.Sequence,0_5_21,2022-07-15T14:39:40.899Z,,,,,,18,3750,completion,,,0.545,,,,,,,,,,,,,,,,,0.455,false,180065,180064.36,176297.7,176298,176314.36,180081.02,,,
fixation,canvas.Screen,0_5_22_0,2022-07-15T14:39:41.400Z,,,,,,6,500.0200000000186,timeout,,,0.515,,,,,,,,,,,,,,,,,0.485,false,180565,180564.36,180064.36,180065,180081.02,180581.04,,,
stimulus,canvas.Screen,0_5_22_1,2022-07-15T14:39:42.184Z,,,,,,6,762.9599999999919,response,,0.515,0.515,,,https://raw.githubusercontent.com/carero2/loss-perception/main/png/0.515blue1yellowb%3D1w%3D100v%3D94.png,https://raw.githubusercontent.com/carero2/loss-perception/main/png/0.485blue1yellowb%3D1w%3D100v%3D94.png,,,,,,,,,true,f,keypress(f),0.485,0.485,false,181349,181344,180564.36,180565,180581.04,181350.64,,,
choice,canvas.Screen,0_5_22_2,2022-07-15T14:39:44.166Z,,,,0.515,,6,1997.0599999999977,timeout,,,0.515,,0.485,,,3,,,,,,,51,,,,,0.485,false,183331,183331.02,181350.58,181351,181350.64,183347.7,,151,
timeout,canvas.Screen,0_5_22_3,2022-07-15T14:39:44.167Z,,,,,,6,NaN,skipped,,,0.515,,,,,,,,,,,,,,,,,0.485,false,183332,183331.02,,183332,,183347.7,,,
ITI,canvas.Screen,0_5_22_4,2022-07-15T14:39:44.666Z,,,,,,6,500,timeout,,,0.515,,,,,,,,,,,,,,,,,0.485,false,183831,183831.04,183331.02,183332,183347.7,183847.7,,,
trial,flow.Sequence,0_5_22,2022-07-15T14:39:44.666Z,,,,,,6,3750.0200000000186,completion,,,0.515,,,,,,,,,,,,,,,,,0.485,false,183831,183831.04,180064.36,180065,180081.02,183847.7,,,
fixation,canvas.Screen,0_5_23_0,2022-07-15T14:39:45.166Z,,,,,,12,500,timeout,,,0.53,,,,,,,,,,,,,,,,,0.47,false,184332,184331.04,183831.04,183831,183847.7,184347.7,,,
stimulus,canvas.Screen,0_5_23_1,2022-07-15T14:39:46.216Z,,,,,,12,1027.2999999999884,response,,0.53,0.53,,,https://raw.githubusercontent.com/carero2/loss-perception/main/png/0.53blue1yellowb%3D1w%3D100v%3D72.png,https://raw.githubusercontent.com/carero2/loss-perception/main/png/0.47blue1yellowb%3D1w%3D100v%3D72.png,,,,,,,,,true,f,keypress(f),0.47,0.47,false,185382,185375,184331.04,184332,184347.7,185383.26,,,
choice,canvas.Screen,0_5_23_2,2022-07-15T14:39:48.199Z,,,,0.53,,12,1997.7599999999802,timeout,,,0.53,,0.47,,,6,,,,,,,57,,,,,0.47,false,187365,187364.36,185383.2,185384,185383.26,187381.02,,157,
timeout,canvas.Screen,0_5_23_3,2022-07-15T14:39:48.200Z,,,,,,12,NaN,skipped,,,0.53,,,,,,,,,,,,,,,,,0.47,false,187366,187364.36,,187365,,187381.02,,,
ITI,canvas.Screen,0_5_23_4,2022-07-15T14:39:48.699Z,,,,,,12,500,timeout,,,0.53,,,,,,,,,,,,,,,,,0.47,false,187865,187864.36,187364.36,187366,187381.02,187881.02,,,
trial,flow.Sequence,0_5_23,2022-07-15T14:39:48.699Z,,,,,,12,4016.6599999999744,completion,,,0.53,,,,,,,,,,,,,,,,,0.47,false,187865,187864.36,183831.04,183831,183847.7,187881.02,,,
pratice,flow.Loop,0_5,2022-07-15T14:39:48.699Z,,,,,,,96666.45999999999,completion,,,,,,,,,,,,,,,,,,,,,,187865,187864.36,91197.84,91198,91197.9,187881.02,,,
show amount,html.Screen,0_6,2022-07-15T14:39:56.985Z,,,,,,,8259.98000000001,response,,,,,,,,,,,,,,,,,Continue,click #Continue,,,,196150,196141,187864.36,187866,187881.02,196164.38,,,
first block,canvas.Screen,0_7,2022-07-15T14:40:00.559Z,,,,,,,3554.6199999999953,response,,,,,,,,,,,,,,,,,space,keypress(Space),,,,199726,199719,196149.7,196150,196164.38,199725.58,,,
fixation,canvas.Screen,0_8_0_0,2022-07-15T14:40:01.050Z,,,,,,6,560.1200000000244,timeout,,,0.515,,,,,,,,,,,,,,,,,0.485,false,200216,200214.38,199725.48,199726,199725.58,200285.7,,,
stimulus,canvas.Screen,0_8_0_1,2022-07-15T14:40:02.296Z,,,,,,6,1167.2999999999884,response,,0.515,0.515,,,https://raw.githubusercontent.com/carero2/loss-perception/main/png/0.515blue1yellowb%3D1w%3D100v%3D79.png,https://raw.githubusercontent.com/carero2/loss-perception/main/png/0.485blue1yellowb%3D1w%3D100v%3D79.png,,,,,,,,,true,f,keypress(f),0.485,0.485,false,201462,201453,200214.38,200286,200285.7,201463.7,,,
choice,canvas.Screen,0_8_0_2,2022-07-15T14:40:03.283Z,,,,0.515,,6,1000.679999999993,timeout,,,0.515,,0.485,,,3,3,,,,,,,,,,,0.485,false,202448,202447.7,201463.64,201464,201463.7,202464.38,103,,
ITI,canvas.Screen,0_8_0_3,2022-07-15T14:40:03.783Z,,,2670,,,6,500,timeout,,,0.515,,,,,,,,,,,,,,,,,0.485,false,202948,202947.7,202447.7,202448,202464.38,202964.38,,,
trial,flow.Sequence,0_8_0,2022-07-15T14:40:03.783Z,,,,,,6,3222.1200000000244,completion,,,0.515,,,,,,,,,,,,,,,,,0.485,false,202949,202947.7,199725.48,199726,199725.58,202964.38,,,
fixation,canvas.Screen,0_8_1_0,2022-07-15T14:40:04.283Z,,,,,,6,654.0599999999977,timeout,,,0.485,,,,,,,,,,,,,,,,,0.455,false,203448,203447.7,202947.7,202949,202964.38,203618.44,,,
stimulus,canvas.Screen,0_8_1_1,2022-07-15T14:40:05.344Z,,,,,,6,881.5599999999977,response,,0.485,0.485,,,https://raw.githubusercontent.com/carero2/loss-perception/main/png/0.485blue1yellowb%3D1w%3D100v%3D52.png,https://raw.githubusercontent.com/carero2/loss-perception/main/png/0.455blue1yellowb%3D1w%3D100v%3D52.png,,,,,,,,,true,f,keypress(f),0.455,0.455,false,204509,204500,203447.7,203618,203618.44,204511.04,,,
choice,canvas.Screen,0_8_1_2,2022-07-15T14:40:06.332Z,,,,0.485,,6,1003.3399999999965,timeout,,,0.485,,0.455,,,-3,0,,,,,,,,,,,0.455,false,205498,205497.7,204510.98,204511,204511.04,205514.38,100,,
ITI,canvas.Screen,0_8_1_3,2022-07-15T14:40:06.833Z,,,2238,,,6,500,timeout,,,0.485,,,,,,,,,,,,,,,,,0.455,false,205999,205997.72,205497.7,205498,205514.38,206014.38,,,
trial,flow.Sequence,0_8_1,2022-07-15T14:40:06.833Z,,,,,,6,3033.3399999999965,completion,,,0.485,,,,,,,,,,,,,,,,,0.455,false,205999,205997.72,202947.7,202949,202964.38,206014.38,,,
fixation,canvas.Screen,0_8_2_0,2022-07-15T14:40:07.333Z,,,,,,4,744.6600000000035,timeout,,,0.49,,,,,,,,,,,,,,,,,0.47,true,206498,206497.7,205997.72,205999,206014.38,206759.04,,,
stimulus,canvas.Screen,0_8_2_1,2022-07-15T14:40:08.624Z,,,,,,4,1021.9599999999919,response,,0.47,0.49,,,https://raw.githubusercontent.com/carero2/loss-perception/main/png/0.47blue1yellowb%3D1w%3D100v%3D83.png,https://raw.githubusercontent.com/carero2/loss-perception/main/png/0.49blue1yellowb%3D1w%3D100v%3D83.png,,,,,,,,,true,j,keypress(j),0.49,0.47,true,207789,207781,206497.7,206759,206759.04,207791.32,,,
choice,canvas.Screen,0_8_2_2,2022-07-15T14:40:09.616Z,,,,0.49,,4,1006.3800000000047,timeout,,,0.49,,0.47,,,-2,-2,,,,,,,,,,,0.47,true,208782,208781.04,207791.24,207791,207791.32,208797.7,98,,
ITI,canvas.Screen,0_8_2_3,2022-07-15T14:40:10.115Z,,,2640,,,4,500,timeout,,,0.49,,,,,,,,,,,,,,,,,0.47,true,209281,209281.04,208781.04,208782,208797.7,209297.7,,,
trial,flow.Sequence,0_8_2,2022-07-15T14:40:10.117Z,,,,,,4,3266.6600000000035,completion,,,0.49,,,,,,,,,,,,,,,,,0.47,true,209281,209281.04,205997.72,205999,206014.38,209297.7,,,
fixation,canvas.Screen,0_8_3_0,2022-07-15T14:40:10.615Z,,,,,,2,656.3399999999965,timeout,,,0.505,,,,,,,,,,,,,,,,,0.495,true,209782,209781.04,209281.04,209281,209297.7,209954.04,,,
stimulus,canvas.Screen,0_8_3_1,2022-07-15T14:40:11.968Z,,,,,,2,1170.9599999999919,response,,0.495,0.505,,,https://raw.githubusercontent.com/carero2/loss-perception/main/png/0.495blue1yellowb%3D1w%3D100v%3D48.png,https://raw.githubusercontent.com/carero2/loss-perception/main/png/0.505blue1yellowb%3D1w%3D100v%3D48.png,,,,,,,,,true,j,keypress(j),0.505,0.495,true,211133,211125,209781.04,209954,209954.04,211134.92,,,
choice,canvas.Screen,0_8_3_2,2022-07-15T14:40:12.949Z,,,,0.505,,2,996.1199999999953,timeout,,,0.505,,0.495,,,1,-1,,,,,,,,,,,0.495,true,212114,212114.38,211134.86,211135,211134.92,212131.04,99,,
ITI,canvas.Screen,0_8_3_3,2022-07-15T14:40:13.449Z,,,2825,,,2,500,timeout,,,0.505,,,,,,,,,,,,,,,,,0.495,true,212615,212614.38,212114.38,212114,212131.04,212631.04,,,
trial,flow.Sequence,0_8_3,2022-07-15T14:40:13.449Z,,,,,,2,3316.679999999993,completion,,,0.505,,,,,,,,,,,,,,,,,0.495,true,212615,212614.38,209281.04,209281,209297.7,212631.04,,,
fixation,canvas.Screen,0_8_4_0,2022-07-15T14:40:13.949Z,,,,,,6,657.4400000000023,timeout,,,0.545,,,,,,,,,,,,,,,,,0.515,true,213114,213114.38,212614.38,212615,212631.04,213288.48,,,
stimulus,canvas.Screen,0_8_4_1,2022-07-15T14:40:15.080Z,,,,,,6,946.5199999999895,response,,0.515,0.545,,,https://raw.githubusercontent.com/carero2/loss-perception/main/png/0.515blue1yellowb%3D1w%3D100v%3D2.png,https://raw.githubusercontent.com/carero2/loss-perception/main/png/0.545blue1yellowb%3D1w%3D100v%3D2.png,,,,,,,,,true,j,keypress(j),0.545,0.515,true,214246,214235,213114.38,213289,213288.48,214247.18,,,
choice,canvas.Screen,0_8_4_2,2022-07-15T14:40:16.066Z,,,,0.545,,6,1000.5400000000081,timeout,,,0.545,,0.515,,,9,8,,,,,,,,,,,0.515,true,215232,215231.06,214247.1,214247,214247.18,215247.72,108,,
ITI,canvas.Screen,0_8_4_3,2022-07-15T14:40:16.566Z,,,2163,,,6,500,timeout,,,0.545,,,,,,,,,,,,,,,,,0.515,true,215731,215731.06,215231.06,215232,215247.72,215747.72,,,
trial,flow.Sequence,0_8_4,2022-07-15T14:40:16.566Z,,,,,,6,3100.0199999999895,completion,,,0.545,,,,,,,,,,,,,,,,,0.515,true,215731,215731.06,212614.38,212615,212631.04,215747.72,,,
fixation,canvas.Screen,0_8_5_0,2022-07-15T14:40:17.066Z,,,,,,4,592.5400000000081,timeout,,,0.51,,,,,,,,,,,,,,,,,0.49,false,216231,216231.06,215731.06,215732,215747.72,216340.26,,,
stimulus,canvas.Screen,0_8_5_1,2022-07-15T14:40:18.776Z,,,,,,4,1597.7399999999907,response,,0.51,0.51,,,https://raw.githubusercontent.com/carero2/loss-perception/main/png/0.51blue1yellowb%3D1w%3D100v%3D83.png,https://raw.githubusercontent.com/carero2/loss-perception/main/png/0.49blue1yellowb%3D1w%3D100v%3D83.png,,,,,,,,,true,j,keypress(j),0.49,0.49,false,217941,217938,216231.06,216340,216340.26,217942.9,,,
choice,canvas.Screen,0_8_5_2,2022-07-15T14:40:19.766Z,,,,0.49,,4,1004.820000000007,timeout,,,0.51,,0.51,,,-2,6,,,,,,,,,,,0.49,false,218931,218931.06,217942.84,217943,217942.9,218947.72,106,,
ITI,canvas.Screen,0_8_5_3,2022-07-15T14:40:20.266Z,,,2238,,,4,500,timeout,,,0.51,,,,,,,,,,,,,,,,,0.49,false,219432,219431.04,218931.06,218932,218947.72,219447.72,,,
trial,flow.Sequence,0_8_5,2022-07-15T14:40:20.266Z,,,,,,4,3683.320000000007,completion,,,0.51,,,,,,,,,,,,,,,,,0.49,false,219432,219431.04,215731.06,215732,215747.72,219447.72,,,
fixation,canvas.Screen,0_8_6_0,2022-07-15T14:40:20.766Z,,,,,,2,654.2000000000116,timeout,,,0.495,,,,,,,,,,,,,,,,,0.485,false,219932,219931.06,219431.04,219432,219447.72,220101.92,,,
stimulus,canvas.Screen,0_8_6_1,2022-07-15T14:40:22.504Z,,,,,,2,1555.0799999999872,response,,0.495,0.495,,,https://raw.githubusercontent.com/carero2/loss-perception/main/png/0.495blue1yellowb%3D1w%3D100v%3D23.png,https://raw.githubusercontent.com/carero2/loss-perception/main/png/0.485blue1yellowb%3D1w%3D100v%3D23.png,,,,,,,,,true,f,keypress(f),0.485,0.485,false,221669,221657,219931.06,220102,220101.92,221670.76,,,
choice,canvas.Screen,0_8_6_2,2022-07-15T14:40:23.483Z,,,,0.495,,2,993.6399999999849,timeout,,,0.495,,0.485,,,-1,5,,,,,,,,,,,0.485,false,222648,222647.72,221670.7,221670,221670.76,222664.4,105,,
ITI,canvas.Screen,0_8_6_3,2022-07-15T14:40:23.982Z,,,2870,,,2,500,timeout,,,0.495,,,,,,,,,,,,,,,,,0.485,false,223148,223147.72,222647.72,222648,222664.4,223164.4,,,
trial,flow.Sequence,0_8_6,2022-07-15T14:40:23.982Z,,,,,,2,3700,completion,,,0.495,,,,,,,,,,,,,,,,,0.485,false,223148,223147.72,219431.04,219432,219447.72,223164.4,,,
fixation,canvas.Screen,0_8_7_0,2022-07-15T14:40:24.483Z,,,,,,2,865.3600000000151,timeout,,,0.515,,,,,,,,,,,,,,,,,0.505,true,223648,223647.72,223147.72,223148,223164.4,224029.76,,,
stimulus,canvas.Screen,0_8_7_1,2022-07-15T14:40:25.647Z,,,,,,2,767.2399999999907,response,,0.505,0.515,,,https://raw.githubusercontent.com/carero2/loss-perception/main/png/0.505blue1yellowb%3D1w%3D100v%3D16.png,https://raw.githubusercontent.com/carero2/loss-perception/main/png/0.515blue1yellowb%3D1w%3D100v%3D16.png,,,,,,,,,true,j,keypress(j),0.515,0.505,true,224813,224797,223647.72,224030,224029.76,224814.82,,,
choice,canvas.Screen,0_8_7_2,2022-07-15T14:40:26.633Z,,,,0.515,,2,999.5799999999872,timeout,,,0.515,,0.505,,,3,8,,,,,,,,,,,0.505,true,225798,225797.72,224814.74,224815,224814.82,225814.4,108,,
ITI,canvas.Screen,0_8_7_3,2022-07-15T14:40:27.133Z,,,2235,,,2,499.9800000000105,timeout,,,0.515,,,,,,,,,,,,,,,,,0.505,true,226298,226297.72,225797.72,225798,225814.4,226314.38,,,
trial,flow.Sequence,0_8_7,2022-07-15T14:40:27.133Z,,,,,,2,3133.320000000007,completion,,,0.515,,,,,,,,,,,,,,,,,0.505,true,226298,226297.72,223147.72,223148,223164.4,226314.38,,,
fixation,canvas.Screen,0_8_8_0,2022-07-15T14:40:27.633Z,,,,,,4,711.0199999999895,timeout,,,0.53,,,,,,,,,,,,,,,,,0.51,true,226798,226797.72,226297.72,226298,226314.38,227025.4,,,
stimulus,canvas.Screen,0_8_8_1,2022-07-15T14:40:28.712Z,,,,,,4,849.6000000000058,response,,0.51,0.53,,,https://raw.githubusercontent.com/carero2/loss-perception/main/png/0.51blue1yellowb%3D1w%3D100v%3D55.png,https://raw.githubusercontent.com/carero2/loss-perception/main/png/0.53blue1yellowb%3D1w%3D100v%3D55.png,,,,,,,,,true,j,keypress(j),0.53,0.51,true,227877,227875,226797.72,227026,227025.4,227878.56,,,
choice,canvas.Screen,0_8_8_2,2022-07-15T14:40:29.700Z,,,,0.53,,4,1002.5,timeout,,,0.53,,0.51,,,6,14,,,,,,,,,,,0.51,true,228865,228864.38,227878.5,227878,227878.56,228881.06,114,,
ITI,canvas.Screen,0_8_8_3,2022-07-15T14:40:30.200Z,,,2878,,,4,500,timeout,,,0.53,,,,,,,,,,,,,,,,,0.51,true,229365,229364.38,228864.38,228865,228881.06,229381.06,,,
trial,flow.Sequence,0_8_8,2022-07-15T14:40:30.200Z,,,,,,4,3050,completion,,,0.53,,,,,,,,,,,,,,,,,0.51,true,229365,229364.38,226297.72,226298,226314.38,229381.06,,,
fixation,canvas.Screen,0_8_9_0,2022-07-15T14:40:30.700Z,,,,,,2,689.6600000000035,timeout,,,0.505,,,,,,,,,,,,,,,,,0.495,false,229865,229864.38,229364.38,229365,229381.06,230070.72,,,
stimulus,canvas.Screen,0_8_9_1,2022-07-15T14:40:32.400Z,,,,,,2,1492.2799999999988,response,,0.505,0.505,,,https://raw.githubusercontent.com/carero2/loss-perception/main/png/0.505blue1yellowb%3D1w%3D100v%3D71.png,https://raw.githubusercontent.com/carero2/loss-perception/main/png/0.495blue1yellowb%3D1w%3D100v%3D71.png,,,,,,,,,true,j,keypress(j),0.495,0.495,false,231565,231563,229864.38,230070,230070.72,231566.56,,,
choice,canvas.Screen,0_8_9_2,2022-07-15T14:40:33.382Z,,,,0.495,,2,997.820000000007,timeout,,,0.505,,0.505,,,-1,13,,,,,,,,,,,0.495,false,232548,232547.72,231566.48,231566,231566.56,232564.38,113,,
ITI,canvas.Screen,0_8_9_3,2022-07-15T14:40:33.883Z,,,2463,,,2,500,timeout,,,0.505,,,,,,,,,,,,,,,,,0.495,false,233048,233047.72,232547.72,232548,232564.38,233064.38,,,
trial,flow.Sequence,0_8_9,2022-07-15T14:40:33.883Z,,,,,,2,3666.6600000000035,completion,,,0.505,,,,,,,,,,,,,,,,,0.495,false,233048,233047.72,229364.38,229365,229381.06,233064.38,,,
fixation,canvas.Screen,0_8_10_0,2022-07-15T14:40:34.382Z,,,,,,2,661.2799999999988,timeout,,,0.515,,,,,,,,,,,,,,,,,0.505,false,233548,233547.74,233047.72,233048,233064.38,233725.66,,,
stimulus,canvas.Screen,0_8_10_1,2022-07-15T14:40:35.888Z,,,,,,2,1321.3399999999965,response,,0.515,0.515,,,https://raw.githubusercontent.com/carero2/loss-perception/main/png/0.515blue1yellowb%3D1w%3D100v%3D72.png,https://raw.githubusercontent.com/carero2/loss-perception/main/png/0.505blue1yellowb%3D1w%3D100v%3D72.png,,,,,,,,,true,f,keypress(f),0.505,0.505,false,235053,235047,233547.74,233726,233725.66,235054.74,,,
choice,canvas.Screen,0_8_10_2,2022-07-15T14:40:36.866Z,,,,0.515,,2,992.9800000000105,timeout,,,0.515,,0.505,,,3,16,,,,,,,,,,,0.505,false,236032,236031.06,235054.68,235054,235054.74,236047.72,116,,
ITI,canvas.Screen,0_8_10_3,2022-07-15T14:40:37.366Z,,,2419,,,2,500,timeout,,,0.515,,,,,,,,,,,,,,,,,0.505,false,236531,236531.06,236031.06,236032,236047.72,236547.72,,,
trial,flow.Sequence,0_8_10,2022-07-15T14:40:37.366Z,,,,,,2,3466.679999999993,completion,,,0.515,,,,,,,,,,,,,,,,,0.505,false,236531,236531.06,233047.72,233048,233064.38,236547.72,,,
fixation,canvas.Screen,0_8_11_0,2022-07-15T14:40:37.866Z,,,,,,6,659.6600000000035,timeout,,,0.485,,,,,,,,,,,,,,,,,0.455,true,237032,237031.06,236531.06,236531,236547.72,237207.38,,,
stimulus,canvas.Screen,0_8_11_1,2022-07-15T14:40:39.320Z,,,,,,6,1261.6199999999953,response,,0.455,0.485,,,https://raw.githubusercontent.com/carero2/loss-perception/main/png/0.455blue1yellowb%3D1w%3D100v%3D27.png,https://raw.githubusercontent.com/carero2/loss-perception/main/png/0.485blue1yellowb%3D1w%3D100v%3D27.png,,,,,,,,,true,j,keypress(j),0.485,0.455,true,238486,238469,237031.06,237207,237207.38,238486.68,,,
choice,canvas.Screen,0_8_11_2,2022-07-15T14:40:40.299Z,,,,0.485,,6,994.3800000000047,timeout,,,0.485,,0.455,,,-3,13,,,,,,,,,,,0.455,true,239465,239464.4,238486.62,238487,238486.68,239481.06,113,,
ITI,canvas.Screen,0_8_11_3,2022-07-15T14:40:40.800Z,,,2148,,,6,500,timeout,,,0.485,,,,,,,,,,,,,,,,,0.455,true,239965,239964.4,239464.4,239465,239481.06,239981.06,,,
trial,flow.Sequence,0_8_11,2022-07-15T14:40:40.800Z,,,,,,6,3416.679999999993,completion,,,0.485,,,,,,,,,,,,,,,,,0.455,true,239965,239964.4,236531.06,236531,236547.72,239981.06,,,
fixation,canvas.Screen,0_8_12_0,2022-07-15T14:40:41.299Z,,,,,,4,513.5,timeout,,,0.49,,,,,,,,,,,,,,,,,0.47,false,240465,240464.4,239964.4,239965,239981.06,240494.56,,,
stimulus,canvas.Screen,0_8_12_1,2022-07-15T14:40:42.816Z,,,,,,4,1474.4400000000023,response,,0.49,0.49,,,https://raw.githubusercontent.com/carero2/loss-perception/main/png/0.49blue1yellowb%3D1w%3D100v%3D72.png,https://raw.githubusercontent.com/carero2/loss-perception/main/png/0.47blue1yellowb%3D1w%3D100v%3D72.png,,,,,,,,,true,f,keypress(f),0.47,0.47,false,241982,241969,240464.4,240494,240494.56,241983.62,,,
choice,canvas.Screen,0_8_12_2,2022-07-15T14:40:43.800Z,,,,0.49,,4,997.4400000000023,timeout,,,0.49,,0.47,,,-2,11,,,,,,,,,,,0.47,false,242965,242964.4,241983.56,241984,241983.62,242981.06,111,,
ITI,canvas.Screen,0_8_12_3,2022-07-15T14:40:44.300Z,,,2145,,,4,500,timeout,,,0.49,,,,,,,,,,,,,,,,,0.47,false,243465,243464.4,242964.4,242966,242981.06,243481.06,,,
trial,flow.Sequence,0_8_12,2022-07-15T14:40:44.300Z,,,,,,4,3483.3399999999965,completion,,,0.49,,,,,,,,,,,,,,,,,0.47,false,243465,243464.4,239964.4,239965,239981.06,243481.06,,,
fixation,canvas.Screen,0_8_13_0,2022-07-15T14:40:44.799Z,,,,,,6,512.679999999993,timeout,,,0.545,,,,,,,,,,,,,,,,,0.515,false,243965,243964.4,243464.4,243465,243481.06,243993.74,,,
stimulus,canvas.Screen,0_8_13_1,2022-07-15T14:40:45.960Z,,,,,,6,1115.2600000000093,response,,0.545,0.545,,,https://raw.githubusercontent.com/carero2/loss-perception/main/png/0.545blue1yellowb%3D1w%3D100v%3D40.png,https://raw.githubusercontent.com/carero2/loss-perception/main/png/0.515blue1yellowb%3D1w%3D100v%3D40.png,,,,,,,,,true,f,keypress(f),0.515,0.515,false,245125,245109,243964.4,243994,243993.74,245127.3,,,
choice,canvas.Screen,0_8_13_2,2022-07-15T14:40:46.950Z,,,,0.545,,6,1003.7799999999988,timeout,,,0.545,,0.515,,,9,20,,,,,,,,,,,0.515,false,246115,246114.4,245127.24,245127,245127.3,246131.08,120,,
ITI,canvas.Screen,0_8_13_3,2022-07-15T14:40:47.450Z,,,2379,,,6,499.9800000000105,timeout,,,0.545,,,,,,,,,,,,,,,,,0.515,false,246614,246614.4,246114.4,246115,246131.08,246631.06,,,
trial,flow.Sequence,0_8_13,2022-07-15T14:40:47.450Z,,,,,,6,3133.3399999999965,completion,,,0.545,,,,,,,,,,,,,,,,,0.515,false,246615,246614.4,243464.4,243465,243481.06,246631.06,,,
fixation,canvas.Screen,0_8_14_0,2022-07-15T14:40:47.949Z,,,,,,6,646.0400000000081,timeout,,,0.515,,,,,,,,,,,,,,,,,0.485,false,247115,247114.4,246614.4,246615,246631.06,247277.1,,,
stimulus,canvas.Screen,0_8_14_1,2022-07-15T14:40:50.143Z,,,,,,6,2019.8999999999942,response,,0.515,0.515,,,https://raw.githubusercontent.com/carero2/loss-perception/main/png/0.515blue1yellowb%3D1w%3D100v%3D87.png,https://raw.githubusercontent.com/carero2/loss-perception/main/png/0.485blue1yellowb%3D1w%3D100v%3D87.png,,,,,,,,,true,f,keypress(f),0.485,0.485,false,249310,249297,247114.4,247277,247277.1,249311.22,,,
choice,canvas.Screen,0_8_14_2,2022-07-15T14:40:51.132Z,,,,0.515,,6,1003.179999999993,timeout,,,0.515,,0.485,,,3,23,,,,,,,,,,,0.485,false,250298,250297.74,249311.16,249311,249311.22,250314.4,123,,
ITI,canvas.Screen,0_8_14_3,2022-07-15T14:40:51.632Z,,,2682,,,6,500,timeout,,,0.515,,,,,,,,,,,,,,,,,0.485,false,250798,250797.74,250297.74,250298,250314.4,250814.4,,,
trial,flow.Sequence,0_8_14,2022-07-15T14:40:51.632Z,,,,,,6,4166.679999999993,completion,,,0.515,,,,,,,,,,,,,,,,,0.485,false,250798,250797.74,246614.4,246615,246631.06,250814.4,,,
fixation,canvas.Screen,0_8_15_0,2022-07-15T14:40:52.132Z,,,,,,4,658.7799999999988,timeout,,,0.53,,,,,,,,,,,,,,,,,0.51,false,251298,251297.76,250797.74,250798,250814.4,251473.18,,,
stimulus,canvas.Screen,0_8_15_1,2022-07-15T14:40:54.064Z,,,,,,4,1745.820000000007,response,,0.53,0.53,,,https://raw.githubusercontent.com/carero2/loss-perception/main/png/0.53blue1yellowb%3D1w%3D100v%3D4.png,https://raw.githubusercontent.com/carero2/loss-perception/main/png/0.51blue1yellowb%3D1w%3D100v%3D4.png,,,,,,,,,true,f,keypress(f),0.51,0.51,false,253229,253219,251297.76,251473,251473.18,253231.08,,,
choice,canvas.Screen,0_8_15_2,2022-07-15T14:40:55.049Z,,,,0.53,,4,1000,timeout,,,0.53,,0.51,,,6,29,,,,,,,,,,,0.51,false,254215,254214.42,253231.02,253230,253231.08,254231.08,129,,
ITI,canvas.Screen,0_8_15_3,2022-07-15T14:40:55.549Z,,,2340,,,4,499.9800000000105,timeout,,,0.53,,,,,,,,,,,,,,,,,0.51,false,254715,254714.4,254214.42,254215,254231.08,254731.06,,,
trial,flow.Sequence,0_8_15,2022-07-15T14:40:55.549Z,,,,,,4,3900,completion,,,0.53,,,,,,,,,,,,,,,,,0.51,false,254715,254714.4,250797.74,250798,250814.4,254731.06,,,
fixation,canvas.Screen,0_8_16_0,2022-07-15T14:40:56.049Z,,,,,,4,652.0400000000081,timeout,,,0.51,,,,,,,,,,,,,,,,,0.49,true,255215,255214.4,254714.4,254715,254731.06,255383.1,,,
stimulus,canvas.Screen,0_8_16_1,2022-07-15T14:40:57.392Z,,,,,,4,1163.8999999999942,response,,0.49,0.51,,,https://raw.githubusercontent.com/carero2/loss-perception/main/png/0.49blue1yellowb%3D1w%3D100v%3D21.png,https://raw.githubusercontent.com/carero2/loss-perception/main/png/0.51blue1yellowb%3D1w%3D100v%3D21.png,,,,,,,,,true,j,keypress(j),0.51,0.49,true,256557,256547,255214.4,255383,255383.1,256558.92,,,
choice,canvas.Screen,0_8_16_2,2022-07-15T14:40:58.383Z,,,,0.51,,4,1005.4799999999814,timeout,,,0.51,,0.49,,,2,31,,,,,,,,,,,0.49,true,257549,257547.74,256558.86,256559,256558.92,257564.4,131,,
ITI,canvas.Screen,0_8_16_3,2022-07-15T14:40:58.882Z,,,2196,,,4,500,timeout,,,0.51,,,,,,,,,,,,,,,,,0.49,true,258048,258047.74,257547.74,257549,257564.4,258064.4,,,
trial,flow.Sequence,0_8_16,2022-07-15T14:40:58.883Z,,,,,,4,3316.679999999993,completion,,,0.51,,,,,,,,,,,,,,,,,0.49,true,258048,258047.74,254714.4,254715,254731.06,258064.4,,,
fixation,canvas.Screen,0_8_17_0,2022-07-15T14:40:59.383Z,,,,,,2,661.7600000000093,timeout,,,0.495,,,,,,,,,,,,,,,,,0.485,false,258548,258547.76,258047.74,258048,258064.4,258726.16,,,
stimulus,canvas.Screen,0_8_17_1,2022-07-15T14:41:00.960Z,,,,,,2,1382.8399999999965,response,,0.495,0.495,,,https://raw.githubusercontent.com/carero2/loss-perception/main/png/0.495blue1yellowb%3D1w%3D100v%3D92.png,https://raw.githubusercontent.com/carero2/loss-perception/main/png/0.485blue1yellowb%3D1w%3D100v%3D92.png,,,,,,,,,true,f,keypress(f),0.485,0.485,false,260125,260109,258547.76,258726,258726.16,260126.8,,,
choice,canvas.Screen,0_8_17_2,2022-07-15T14:41:01.950Z,,,,0.495,,2,1004.2799999999988,timeout,,,0.495,,0.485,,,-1,30,,,,,,,,,,,0.485,false,261115,261114.4,260126.74,260126,260126.8,261131.08,130,,
ITI,canvas.Screen,0_8_17_3,2022-07-15T14:41:02.449Z,,,2403,,,2,500,timeout,,,0.495,,,,,,,,,,,,,,,,,0.485,false,261614,261614.4,261114.4,261115,261131.08,261631.08,,,
trial,flow.Sequence,0_8_17,2022-07-15T14:41:02.449Z,,,,,,2,3550,completion,,,0.495,,,,,,,,,,,,,,,,,0.485,false,261614,261614.4,258047.74,258048,258064.4,261631.08,,,
fixation,canvas.Screen,0_8_18_0,2022-07-15T14:41:02.949Z,,,,,,6,656.0600000000268,timeout,,,0.485,,,,,,,,,,,,,,,,,0.455,false,262114,262114.4,261614.4,261614,261631.08,262287.14,,,
stimulus,canvas.Screen,0_8_18_1,2022-07-15T14:41:04.672Z,,,,,,6,1541.859999999986,response,,0.485,0.485,,,https://raw.githubusercontent.com/carero2/loss-perception/main/png/0.485blue1yellowb%3D1w%3D100v%3D78.png,https://raw.githubusercontent.com/carero2/loss-perception/main/png/0.455blue1yellowb%3D1w%3D100v%3D78.png,,,,,,,,,true,f,keypress(f),0.455,0.455,false,263837,263829,262114.4,262287,262287.14,263838.78,,,
choice,canvas.Screen,0_8_18_2,2022-07-15T14:41:05.649Z,,,,0.485,,6,992.2999999999884,timeout,,,0.485,,0.455,,,-3,27,,,,,,,,,,,0.455,false,264815,264814.4,263838.72,263839,263838.78,264831.08,127,,
ITI,canvas.Screen,0_8_18_3,2022-07-15T14:41:06.150Z,,,2989,,,6,500,timeout,,,0.485,,,,,,,,,,,,,,,,,0.455,false,265315,265314.4,264814.4,264815,264831.08,265331.08,,,
trial,flow.Sequence,0_8_18,2022-07-15T14:41:06.150Z,,,,,,6,3683.320000000036,completion,,,0.485,,,,,,,,,,,,,,,,,0.455,false,265315,265314.4,261614.4,261614,261631.08,265331.08,,,
fixation,canvas.Screen,0_8_19_0,2022-07-15T14:41:06.650Z,,,,,,6,650.8999999999651,timeout,,,0.515,,,,,,,,,,,,,,,,,0.485,false,265815,265814.42,265314.4,265315,265331.08,265981.98,,,
stimulus,canvas.Screen,0_8_19_1,2022-07-15T14:41:08.592Z,,,,,,6,1768.0200000000186,response,,0.515,0.515,,,https://raw.githubusercontent.com/carero2/loss-perception/main/png/0.515blue1yellowb%3D1w%3D100v%3D32.png,https://raw.githubusercontent.com/carero2/loss-perception/main/png/0.485blue1yellowb%3D1w%3D100v%3D32.png,,,,,,,,,true,f,keypress(f),0.485,0.485,false,267757,267750,265814.42,265982,265981.98,267758.92,,,
choice,canvas.Screen,0_8_19_2,2022-07-15T14:41:09.583Z,,,,0.515,,6,1005.5,timeout,,,0.515,,0.485,,,3,30,,,,,,,,,,,0.485,false,268748,268747.74,267758.86,267759,267758.92,268764.42,130,,
ITI,canvas.Screen,0_8_19_3,2022-07-15T14:41:10.083Z,,,2077,,,6,499.9800000000396,timeout,,,0.515,,,,,,,,,,,,,,,,,0.485,false,269248,269247.74,268747.74,268748,268764.42,269264.4,,,
trial,flow.Sequence,0_8_19,2022-07-15T14:41:10.083Z,,,,,,6,3916.6599999999744,completion,,,0.515,,,,,,,,,,,,,,,,,0.485,false,269249,269247.74,265314.4,265315,265331.08,269264.4,,,
fixation,canvas.Screen,0_8_20_0,2022-07-15T14:41:10.583Z,,,,,,4,668.8399999999674,timeout,,,0.53,,,,,,,,,,,,,,,,,0.51,true,269748,269747.74,269247.74,269249,269264.4,269933.24,,,
stimulus,canvas.Screen,0_8_20_1,2022-07-15T14:41:11.560Z,,,,,,4,785.7600000000093,response,,0.51,0.53,,,https://raw.githubusercontent.com/carero2/loss-perception/main/png/0.51blue1yellowb%3D1w%3D100v%3D1.png,https://raw.githubusercontent.com/carero2/loss-perception/main/png/0.53blue1yellowb%3D1w%3D100v%3D1.png,,,,,,,,,true,j,keypress(j),0.53,0.51,true,270726,270719,269747.74,269933,269933.24,270726.84,,,
choice,canvas.Screen,0_8_20_2,2022-07-15T14:41:12.549Z,,,,0.53,,4,1004.2399999999907,timeout,,,0.53,,0.51,,,6,36,,,,,,,,,,,0.51,true,271715,271714.42,270726.78,270727,270726.84,271731.08,136,,
ITI,canvas.Screen,0_8_20_3,2022-07-15T14:41:13.049Z,,,2750,,,4,500,timeout,,,0.53,,,,,,,,,,,,,,,,,0.51,true,272214,272214.42,271714.42,271715,271731.08,272231.08,,,
trial,flow.Sequence,0_8_20,2022-07-15T14:41:13.049Z,,,,,,4,2950.0199999999604,completion,,,0.53,,,,,,,,,,,,,,,,,0.51,true,272215,272214.42,269247.74,269249,269264.4,272231.08,,,
fixation,canvas.Screen,0_8_21_0,2022-07-15T14:41:13.549Z,,,,,,4,664.7399999999907,timeout,,,0.49,,,,,,,,,,,,,,,,,0.47,true,272715,272714.42,272214.42,272215,272231.08,272895.82,,,
stimulus,canvas.Screen,0_8_21_1,2022-07-15T14:41:15.072Z,,,,,,4,1339.179999999993,response,,0.47,0.49,,,https://raw.githubusercontent.com/carero2/loss-perception/main/png/0.47blue1yellowb%3D1w%3D100v%3D89.png,https://raw.githubusercontent.com/carero2/loss-perception/main/png/0.49blue1yellowb%3D1w%3D100v%3D89.png,,,,,,,,,true,j,keypress(j),0.49,0.47,true,274237,274235,272714.42,272896,272895.82,274238.92,,,
choice,canvas.Screen,0_8_21_2,2022-07-15T14:41:16.049Z,,,,0.49,,4,992.1600000000326,timeout,,,0.49,,0.47,,,-2,34,,,,,,,,,,,0.47,true,275214,275214.42,274238.86,274239,274238.92,275231.08,134,,
ITI,canvas.Screen,0_8_21_3,2022-07-15T14:41:16.549Z,,,2825,,,4,500,timeout,,,0.49,,,,,,,,,,,,,,,,,0.47,true,275715,275714.42,275214.42,275215,275231.08,275731.08,,,
trial,flow.Sequence,0_8_21,2022-07-15T14:41:16.549Z,,,,,,4,3483.3399999999674,completion,,,0.49,,,,,,,,,,,,,,,,,0.47,true,275715,275714.42,272214.42,272215,272231.08,275731.08,,,
fixation,canvas.Screen,0_8_22_0,2022-07-15T14:41:17.049Z,,,,,,2,653.9199999999837,timeout,,,0.495,,,,,,,,,,,,,,,,,0.485,false,276215,276214.42,275714.42,275715,275731.08,276385,,,
stimulus,canvas.Screen,0_8_22_1,2022-07-15T14:41:18.488Z,,,,,,2,1256,response,,0.495,0.495,,,https://raw.githubusercontent.com/carero2/loss-perception/main/png/0.495blue1yellowb%3D1w%3D100v%3D84.png,https://raw.githubusercontent.com/carero2/loss-perception/main/png/0.485blue1yellowb%3D1w%3D100v%3D84.png,,,,,,,,,true,f,keypress(f),0.485,0.485,false,277654,277641,276214.42,276385,276385,277655.72,,,
choice,canvas.Screen,0_8_22_2,2022-07-15T14:41:19.466Z,,,,0.495,,2,992.0200000000186,timeout,,,0.495,,0.485,,,-1,33,,,,,,,,,,,0.485,false,278631,278631.08,277655.66,277655,277655.72,278647.74,133,,
ITI,canvas.Screen,0_8_22_3,2022-07-15T14:41:19.966Z,,,2876,,,2,500.0200000000186,timeout,,,0.495,,,,,,,,,,,,,,,,,0.485,false,279132,279131.08,278631.08,278631,278647.74,279147.76,,,
trial,flow.Sequence,0_8_22,2022-07-15T14:41:19.966Z,,,,,,2,3400,completion,,,0.495,,,,,,,,,,,,,,,,,0.485,false,279132,279131.08,275714.42,275715,275731.08,279147.76,,,
fixation,canvas.Screen,0_8_23_0,2022-07-15T14:41:20.466Z,,,,,,2,659.2999999999884,timeout,,,0.515,,,,,,,,,,,,,,,,,0.505,true,279631,279631.1,279131.08,279132,279147.76,279807.06,,,
stimulus,canvas.Screen,0_8_23_1,2022-07-15T14:41:21.656Z,,,,,,2,1005.9400000000023,response,,0.505,0.515,,,https://raw.githubusercontent.com/carero2/loss-perception/main/png/0.505blue1yellowb%3D1w%3D100v%3D84.png,https://raw.githubusercontent.com/carero2/loss-perception/main/png/0.515blue1yellowb%3D1w%3D100v%3D84.png,,,,,,,,,true,j,keypress(j),0.515,0.505,true,280821,280813,279631.1,279807,279807.06,280823.18,,,
choice,canvas.Screen,0_8_23_2,2022-07-15T14:41:22.650Z,,,,0.515,,2,1007.9199999999837,timeout,,,0.515,,0.505,,,3,36,,,,,,,,,,,0.505,true,281814,281814.42,280823.1,280823,280823.18,281831.1,136,,
ITI,canvas.Screen,0_8_23_3,2022-07-15T14:41:23.150Z,,,2847,,,2,499.9800000000396,timeout,,,0.515,,,,,,,,,,,,,,,,,0.505,true,282315,282314.42,281814.42,281815,281831.1,282331.08,,,
trial,flow.Sequence,0_8_23,2022-07-15T14:41:23.150Z,,,,,,2,3166.6599999999744,completion,,,0.515,,,,,,,,,,,,,,,,,0.505,true,282315,282314.42,279131.08,279132,279147.76,282331.08,,,
fixation,canvas.Screen,0_8_24_0,2022-07-15T14:41:23.649Z,,,,,,2,715.7199999999721,timeout,,,0.505,,,,,,,,,,,,,,,,,0.495,false,282815,282814.42,282314.42,282316,282331.08,283046.8,,,
stimulus,canvas.Screen,0_8_24_1,2022-07-15T14:41:24.975Z,,,,,,2,1078.2000000000116,response,,0.505,0.505,,,https://raw.githubusercontent.com/carero2/loss-perception/main/png/0.505blue1yellowb%3D1w%3D100v%3D30.png,https://raw.githubusercontent.com/carero2/loss-perception/main/png/0.495blue1yellowb%3D1w%3D100v%3D30.png,,,,,,,,,true,f,keypress(f),0.495,0.495,false,284142,284125,282814.42,283047,283046.8,284143.16,,,
choice,canvas.Screen,0_8_24_2,2022-07-15T14:41:25.966Z,,,,0.505,,2,1004.6000000000349,timeout,,,0.505,,0.495,,,1,37,,,,,,,,,,,0.495,false,285131,285131.08,284143.1,284144,284143.16,285147.76,137,,
ITI,canvas.Screen,0_8_24_3,2022-07-15T14:41:26.466Z,,,2620,,,2,500,timeout,,,0.505,,,,,,,,,,,,,,,,,0.495,false,285631,285631.08,285131.08,285131,285147.76,285647.76,,,
trial,flow.Sequence,0_8_24,2022-07-15T14:41:26.466Z,,,,,,2,3300,completion,,,0.505,,,,,,,,,,,,,,,,,0.495,false,285631,285631.08,282314.42,282315,282331.08,285647.76,,,
fixation,canvas.Screen,0_8_25_0,2022-07-15T14:41:26.965Z,,,,,,4,976.8999999999651,timeout,,,0.51,,,,,,,,,,,,,,,,,0.49,false,286131,286131.1,285631.08,285632,285647.76,286624.66,,,
stimulus,canvas.Screen,0_8_25_1,2022-07-15T14:41:28.432Z,,,,,,4,969.3400000000256,response,,0.51,0.51,,,https://raw.githubusercontent.com/carero2/loss-perception/main/png/0.51blue1yellowb%3D1w%3D100v%3D76.png,https://raw.githubusercontent.com/carero2/loss-perception/main/png/0.49blue1yellowb%3D1w%3D100v%3D76.png,,,,,,,,,true,f,keypress(f),0.49,0.49,false,287597,287594,286131.1,286624,286624.66,287598.8,,,
choice,canvas.Screen,0_8_25_2,2022-07-15T14:41:29.416Z,,,,0.51,,4,998.960000000021,timeout,,,0.51,,0.49,,,2,39,,,,,,,,,,,0.49,false,288581,288581.1,287598.72,287598,287598.8,288597.76,139,,
ITI,canvas.Screen,0_8_25_3,2022-07-15T14:41:29.916Z,,,2695,,,4,500,timeout,,,0.51,,,,,,,,,,,,,,,,,0.49,false,289081,289081.1,288581.1,288581,288597.76,289097.76,,,
trial,flow.Sequence,0_8_25,2022-07-15T14:41:29.916Z,,,,,,4,3433.3399999999674,completion,,,0.51,,,,,,,,,,,,,,,,,0.49,false,289081,289081.1,285631.08,285631,285647.76,289097.76,,,
fixation,canvas.Screen,0_8_26_0,2022-07-15T14:41:30.416Z,,,,,,6,970.679999999993,timeout,,,0.545,,,,,,,,,,,,,,,,,0.515,false,289581,289581.1,289081.1,289082,289097.76,290068.44,,,
stimulus,canvas.Screen,0_8_26_1,2022-07-15T14:41:32.136Z,,,,,,6,1228.5599999999977,response,,0.545,0.545,,,https://raw.githubusercontent.com/carero2/loss-perception/main/png/0.545blue1yellowb%3D1w%3D100v%3D58.png,https://raw.githubusercontent.com/carero2/loss-perception/main/png/0.515blue1yellowb%3D1w%3D100v%3D58.png,,,,,,,,,true,f,keypress(f),0.515,0.515,false,291302,291297,289581.1,290069,290068.44,291303.36,,,
choice,canvas.Screen,0_8_26_2,2022-07-15T14:41:33.116Z,,,,0.545,,6,994.4000000000233,timeout,,,0.545,,0.515,,,9,48,,,,,,,,,,,0.515,false,292282,292281.1,291303.28,291304,291303.36,292297.76,148,,
ITI,canvas.Screen,0_8_26_3,2022-07-15T14:41:33.616Z,,,2904,,,6,500,timeout,,,0.545,,,,,,,,,,,,,,,,,0.515,false,292781,292781.1,292281.1,292282,292297.76,292797.76,,,
trial,flow.Sequence,0_8_26,2022-07-15T14:41:33.616Z,,,,,,6,3683.3399999999674,completion,,,0.545,,,,,,,,,,,,,,,,,0.515,false,292781,292781.1,289081.1,289082,289097.76,292797.76,,,
fixation,canvas.Screen,0_8_27_0,2022-07-15T14:41:34.115Z,,,,,,6,514.9599999999627,timeout,,,0.545,,,,,,,,,,,,,,,,,0.515,false,293281,293281.1,292781.1,292781,292797.76,293312.72,,,
stimulus,canvas.Screen,0_8_27_1,2022-07-15T14:41:35.720Z,,,,,,6,1562.280000000028,response,,0.545,0.545,,,https://raw.githubusercontent.com/carero2/loss-perception/main/png/0.545blue1yellowb%3D1w%3D100v%3D85.png,https://raw.githubusercontent.com/carero2/loss-perception/main/png/0.515blue1yellowb%3D1w%3D100v%3D85.png,,,,,,,,,true,f,keypress(f),0.515,0.515,false,294885,294875,293281.1,293313,293312.72,294886.66,,,
choice,canvas.Screen,0_8_27_2,2022-07-15T14:41:36.699Z,,,,0.545,,6,994.4200000000419,timeout,,,0.545,,0.515,,,9,57,,,,,,,,,,,0.515,false,295865,295864.42,294886.58,294886,294886.66,295881.08,157,,
ITI,canvas.Screen,0_8_27_3,2022-07-15T14:41:37.200Z,,,2170,,,6,500.0199999999604,timeout,,,0.545,,,,,,,,,,,,,,,,,0.515,false,296364,296364.44,295864.42,295865,295881.08,296381.1,,,
trial,flow.Sequence,0_8_27,2022-07-15T14:41:37.200Z,,,,,,6,3566.679999999993,completion,,,0.545,,,,,,,,,,,,,,,,,0.515,false,296364,296364.44,292781.1,292781,292797.76,296381.1,,,
fixation,canvas.Screen,0_8_28_0,2022-07-15T14:41:37.700Z,,,,,,6,500,timeout,,,0.485,,,,,,,,,,,,,,,,,0.455,true,296864,296864.44,296364.44,296365,296381.1,296881.1,,,
stimulus,canvas.Screen,0_8_28_1,2022-07-15T14:41:38.912Z,,,,,,6,1181.9000000000233,response,,0.455,0.485,,,https://raw.githubusercontent.com/carero2/loss-perception/main/png/0.455blue1yellowb%3D1w%3D100v%3D79.png,https://raw.githubusercontent.com/carero2/loss-perception/main/png/0.485blue1yellowb%3D1w%3D100v%3D79.png,,,,,,,,,true,j,keypress(j),0.485,0.455,true,298078,298063,296864.44,296868,296881.1,298079.02,,,
choice,canvas.Screen,0_8_28_2,2022-07-15T14:41:39.900Z,,,,0.485,,6,1002.0799999999581,timeout,,,0.485,,0.455,,,-3,54,,,,,,,,,,,0.455,true,299065,299064.44,298078.94,298079,298079.02,299081.1,154,,
ITI,canvas.Screen,0_8_28_3,2022-07-15T14:41:40.400Z,,,2254,,,6,500,timeout,,,0.485,,,,,,,,,,,,,,,,,0.455,true,299564,299564.42,299064.44,299065,299081.1,299581.1,,,
trial,flow.Sequence,0_8_28,2022-07-15T14:41:40.400Z,,,,,,6,3183.320000000007,completion,,,0.485,,,,,,,,,,,,,,,,,0.455,true,299564,299564.42,296364.44,296364,296381.1,299581.1,,,
fixation,canvas.Screen,0_8_29_0,2022-07-15T14:41:40.900Z,,,,,,4,696.0800000000163,timeout,,,0.53,,,,,,,,,,,,,,,,,0.51,false,300065,300064.44,299564.42,299565,299581.1,300277.18,,,
stimulus,canvas.Screen,0_8_29_1,2022-07-15T14:41:42.528Z,,,,,,4,1410.820000000007,response,,0.53,0.53,,,https://raw.githubusercontent.com/carero2/loss-perception/main/png/0.53blue1yellowb%3D1w%3D100v%3D24.png,https://raw.githubusercontent.com/carero2/loss-perception/main/png/0.51blue1yellowb%3D1w%3D100v%3D24.png,,,,,,,,,true,j,keypress(j),0.51,0.51,false,301693,301688,300064.44,300277,300277.18,301694.82,,,
choice,canvas.Screen,0_8_29_2,2022-07-15T14:41:43.516Z,,,,0.51,,4,1002.960000000021,timeout,,,0.53,,0.53,,,2,56,,,,,,,,,,,0.51,false,302681,302681.1,301694.76,301695,301694.82,302697.78,156,,
ITI,canvas.Screen,0_8_29_3,2022-07-15T14:41:44.016Z,,,2841,,,4,499.9799999999814,timeout,,,0.53,,,,,,,,,,,,,,,,,0.51,false,303181,303181.1,302681.1,302681,302697.78,303197.76,,,
trial,flow.Sequence,0_8_29,2022-07-15T14:41:44.016Z,,,,,,4,3600,completion,,,0.53,,,,,,,,,,,,,,,,,0.51,false,303182,303181.1,299564.42,299565,299581.1,303197.76,,,
fixation,canvas.Screen,0_8_30_0,2022-07-15T14:41:44.516Z,,,,,,4,524.320000000007,timeout,,,0.49,,,,,,,,,,,,,,,,,0.47,true,303681,303681.1,303181.1,303182,303197.76,303722.08,,,
stimulus,canvas.Screen,0_8_30_1,2022-07-15T14:41:45.344Z,,,,,,4,777.9199999999837,response,,0.47,0.49,,,https://raw.githubusercontent.com/carero2/loss-perception/main/png/0.47blue1yellowb%3D1w%3D100v%3D71.png,https://raw.githubusercontent.com/carero2/loss-perception/main/png/0.49blue1yellowb%3D1w%3D100v%3D71.png,,,,,,,,,true,j,keypress(j),0.49,0.47,true,304510,304500,303681.1,303722,303722.08,304510.52,,,
choice,canvas.Screen,0_8_30_2,2022-07-15T14:41:46.333Z,,,,0.49,,4,1003.9199999999837,timeout,,,0.49,,0.47,,,-2,54,,,,,,,,,,,0.47,true,305498,305497.78,304510.46,304511,304510.52,305514.44,154,,
ITI,canvas.Screen,0_8_30_3,2022-07-15T14:41:46.833Z,,,2888,,,4,500,timeout,,,0.49,,,,,,,,,,,,,,,,,0.47,true,305998,305997.78,305497.78,305498,305514.44,306014.44,,,
trial,flow.Sequence,0_8_30,2022-07-15T14:41:46.833Z,,,,,,4,2800.0200000000186,completion,,,0.49,,,,,,,,,,,,,,,,,0.47,true,305998,305997.78,303181.1,303182,303197.76,306014.44,,,
fixation,canvas.Screen,0_8_31_0,2022-07-15T14:41:47.334Z,,,,,,2,500,timeout,,,0.515,,,,,,,,,,,,,,,,,0.505,true,306499,306497.78,305997.78,305998,306014.44,306514.44,,,
stimulus,canvas.Screen,0_8_31_1,2022-07-15T14:41:48.192Z,,,,,,2,829.5599999999977,response,,0.505,0.515,,,https://raw.githubusercontent.com/carero2/loss-perception/main/png/0.505blue1yellowb%3D1w%3D100v%3D16.png,https://raw.githubusercontent.com/carero2/loss-perception/main/png/0.515blue1yellowb%3D1w%3D100v%3D16.png,,,,,,,,,true,j,keypress(j),0.515,0.505,true,307357,307344,306497.78,306501,306514.44,307359.46,,,
choice,canvas.Screen,0_8_31_2,2022-07-15T14:41:49.183Z,,,,0.515,,2,1004.9799999999814,timeout,,,0.515,,0.505,,,3,57,,,,,,,,,,,0.505,true,308348,308347.78,307359.4,307359,307359.46,308364.44,157,,
ITI,canvas.Screen,0_8_31_3,2022-07-15T14:41:49.682Z,,,2985,,,2,500,timeout,,,0.515,,,,,,,,,,,,,,,,,0.505,true,308848,308847.78,308347.78,308349,308364.44,308864.44,,,
trial,flow.Sequence,0_8_31,2022-07-15T14:41:49.682Z,,,,,,2,2833.3400000000256,completion,,,0.515,,,,,,,,,,,,,,,,,0.505,true,308848,308847.78,305997.78,305998,306014.44,308864.44,,,
fixation,canvas.Screen,0_8_32_0,2022-07-15T14:41:50.183Z,,,,,,4,658.859999999986,timeout,,,0.51,,,,,,,,,,,,,,,,,0.49,true,309348,309347.78,308847.78,308848,308864.44,309523.3,,,
stimulus,canvas.Screen,0_8_32_1,2022-07-15T14:41:51.231Z,,,,,,4,867.7000000000116,response,,0.49,0.51,,,https://raw.githubusercontent.com/carero2/loss-perception/main/png/0.49blue1yellowb%3D1w%3D100v%3D39.png,https://raw.githubusercontent.com/carero2/loss-perception/main/png/0.51blue1yellowb%3D1w%3D100v%3D39.png,,,,,,,,,true,j,keypress(j),0.51,0.49,true,310398,310391,309347.78,309523,309523.3,310398.92,,,
choice,canvas.Screen,0_8_32_2,2022-07-15T14:41:52.216Z,,,,0.51,,4,998.8600000000442,timeout,,,0.51,,0.49,,,2,59,,,,,,,,,,,0.49,true,311381,311381.1,310398.86,310399,310398.92,311397.78,159,,
ITI,canvas.Screen,0_8_32_3,2022-07-15T14:41:52.716Z,,,2908,,,4,500,timeout,,,0.51,,,,,,,,,,,,,,,,,0.49,true,311881,311881.1,311381.1,311381,311397.78,311897.78,,,
trial,flow.Sequence,0_8_32,2022-07-15T14:41:52.716Z,,,,,,4,3016.6599999999744,completion,,,0.51,,,,,,,,,,,,,,,,,0.49,true,311882,311881.1,308847.78,308848,308864.44,311897.78,,,
fixation,canvas.Screen,0_8_33_0,2022-07-15T14:41:53.216Z,,,,,,2,641.6199999999953,timeout,,,0.505,,,,,,,,,,,,,,,,,0.495,true,312382,312381.1,311881.1,311882,311897.78,312539.4,,,
stimulus,canvas.Screen,0_8_33_1,2022-07-15T14:41:54.472Z,,,,,,2,1085.5999999999767,response,,0.495,0.505,,,https://raw.githubusercontent.com/carero2/loss-perception/main/png/0.495blue1yellowb%3D1w%3D100v%3D95.png,https://raw.githubusercontent.com/carero2/loss-perception/main/png/0.505blue1yellowb%3D1w%3D100v%3D95.png,,,,,,,,,true,j,keypress(j),0.505,0.495,true,313638,313625,312381.1,312539,312539.4,313639.5,,,
choice,canvas.Screen,0_8_33_2,2022-07-15T14:41:55.467Z,,,,0.505,,2,1008.2800000000279,timeout,,,0.505,,0.495,,,1,60,,,,,,,,,,,0.495,true,314632,314631.1,313639.44,313640,313639.5,314647.78,160,,
ITI,canvas.Screen,0_8_33_3,2022-07-15T14:41:55.966Z,,,2871,,,2,500,timeout,,,0.505,,,,,,,,,,,,,,,,,0.495,true,315131,315131.12,314631.1,314632,314647.78,315147.78,,,
trial,flow.Sequence,0_8_33,2022-07-15T14:41:55.966Z,,,,,,2,3233.3399999999674,completion,,,0.505,,,,,,,,,,,,,,,,,0.495,true,315131,315131.12,311881.1,311882,311897.78,315147.78,,,
fixation,canvas.Screen,0_8_34_0,2022-07-15T14:41:56.466Z,,,,,,2,672.039999999979,timeout,,,0.495,,,,,,,,,,,,,,,,,0.485,true,315632,315631.1,315131.12,315132,315147.78,315819.82,,,
stimulus,canvas.Screen,0_8_34_1,2022-07-15T14:41:57.688Z,,,,,,2,1024.179999999993,response,,0.485,0.495,,,https://raw.githubusercontent.com/carero2/loss-perception/main/png/0.485blue1yellowb%3D1w%3D100v%3D25.png,https://raw.githubusercontent.com/carero2/loss-perception/main/png/0.495blue1yellowb%3D1w%3D100v%3D25.png,,,,,,,,,true,j,keypress(j),0.495,0.485,true,316854,316844,315631.1,315820,315819.82,316854.94,,,
choice,canvas.Screen,0_8_34_2,2022-07-15T14:41:58.666Z,,,,0.495,,2,992.8400000000256,timeout,,,0.495,,0.485,,,-1,59,,,,,,,,,,,0.485,true,317832,317831.1,316854.88,316854,316854.94,317847.78,159,,
ITI,canvas.Screen,0_8_34_3,2022-07-15T14:41:59.166Z,,,2884,,,2,500,timeout,,,0.495,,,,,,,,,,,,,,,,,0.485,true,318331,318331.1,317831.1,317832,317847.78,318347.78,,,
trial,flow.Sequence,0_8_34,2022-07-15T14:41:59.166Z,,,,,,2,3183.319999999949,completion,,,0.495,,,,,,,,,,,,,,,,,0.485,true,318331,318331.1,315131.12,315132,315147.78,318347.78,,,
fixation,canvas.Screen,0_8_35_0,2022-07-15T14:41:59.665Z,,,,,,6,911.4399999999441,timeout,,,0.515,,,,,,,,,,,,,,,,,0.485,true,318832,318831.12,318331.1,318332,318347.78,319259.22,,,
stimulus,canvas.Screen,0_8_35_1,2022-07-15T14:42:01.008Z,,,,,,6,912.7800000000279,response,,0.485,0.515,,,https://raw.githubusercontent.com/carero2/loss-perception/main/png/0.485blue1yellowb%3D1w%3D100v%3D8.png,https://raw.githubusercontent.com/carero2/loss-perception/main/png/0.515blue1yellowb%3D1w%3D100v%3D8.png,,,,,,,,,true,j,keypress(j),0.515,0.485,true,320173,320172,318831.12,319259,319259.22,320174.98,,,
choice,canvas.Screen,0_8_35_2,2022-07-15T14:42:01.999Z,,,,0.515,,6,1006.1199999999953,timeout,,,0.515,,0.485,,,3,62,,,,,,,,,,,0.485,true,321165,321164.44,320174.92,320175,320174.98,321181.1,162,,
ITI,canvas.Screen,0_8_35_3,2022-07-15T14:42:02.499Z,,,2020,,,6,500.0200000000186,timeout,,,0.515,,,,,,,,,,,,,,,,,0.485,true,321665,321664.44,321164.44,321165,321181.1,321681.12,,,
trial,flow.Sequence,0_8_35,2022-07-15T14:42:02.500Z,,,,,,6,3316.6599999999744,completion,,,0.515,,,,,,,,,,,,,,,,,0.485,true,321665,321664.44,318331.1,318332,318347.78,321681.12,,,
fixation,canvas.Screen,0_8_36_0,2022-07-15T14:42:02.999Z,,,,,,6,643.640000000014,timeout,,,0.515,,,,,,,,,,,,,,,,,0.485,true,322165,322164.44,321664.44,321665,321681.12,322324.76,,,
stimulus,canvas.Screen,0_8_36_1,2022-07-15T14:42:04.007Z,,,,,,6,847.2399999999907,response,,0.485,0.515,,,https://raw.githubusercontent.com/carero2/loss-perception/main/png/0.485blue1yellowb%3D1w%3D100v%3D1.png,https://raw.githubusercontent.com/carero2/loss-perception/main/png/0.515blue1yellowb%3D1w%3D100v%3D1.png,,,,,,,,,true,j,keypress(j),0.515,0.485,true,323173,323172,322164.44,322325,322324.76,323174.96,,,
choice,canvas.Screen,0_8_36_2,2022-07-15T14:42:04.999Z,,,,0.515,,6,1006.1399999999558,timeout,,,0.515,,0.485,,,3,65,,,,,,,,,,,0.485,true,324165,324164.44,323174.9,323175,323174.96,324181.1,165,,
ITI,canvas.Screen,0_8_36_3,2022-07-15T14:42:05.499Z,,,2770,,,6,500.0200000000186,timeout,,,0.515,,,,,,,,,,,,,,,,,0.485,true,324665,324664.44,324164.44,324165,324181.1,324681.12,,,
trial,flow.Sequence,0_8_36,2022-07-15T14:42:05.499Z,,,,,,6,2983.320000000007,completion,,,0.515,,,,,,,,,,,,,,,,,0.485,true,324665,324664.44,321664.44,321665,321681.12,324681.12,,,
fixation,canvas.Screen,0_8_37_0,2022-07-15T14:42:05.999Z,,,,,,6,656.0599999999977,timeout,,,0.545,,,,,,,,,,,,,,,,,0.515,false,325165,325164.46,324664.44,324665,324681.12,325337.18,,,
stimulus,canvas.Screen,0_8_37_1,2022-07-15T14:42:06.951Z,,,,,,6,772.820000000007,response,,0.545,0.545,,,https://raw.githubusercontent.com/carero2/loss-perception/main/png/0.545blue1yellowb%3D1w%3D100v%3D22.png,https://raw.githubusercontent.com/carero2/loss-perception/main/png/0.515blue1yellowb%3D1w%3D100v%3D22.png,,,,,,,,,true,f,keypress(f),0.515,0.515,false,326117,326110,325164.46,325337,325337.18,326118.82,,,
choice,canvas.Screen,0_8_37_2,2022-07-15T14:42:07.932Z,,,,0.545,,6,995.6199999999953,timeout,,,0.545,,0.515,,,9,74,,,,,,,,,,,0.515,false,327099,327097.78,326118.76,326119,326118.82,327114.44,174,,
ITI,canvas.Screen,0_8_37_3,2022-07-15T14:42:08.433Z,,,2670,,,6,500,timeout,,,0.545,,,,,,,,,,,,,,,,,0.515,false,327598,327597.78,327097.78,327099,327114.44,327614.44,,,
trial,flow.Sequence,0_8_37,2022-07-15T14:42:08.433Z,,,,,,6,2916.6600000000326,completion,,,0.545,,,,,,,,,,,,,,,,,0.515,false,327598,327597.78,324664.44,324665,324681.12,327614.44,,,
fixation,canvas.Screen,0_8_38_0,2022-07-15T14:42:08.933Z,,,,,,4,770.359999999986,timeout,,,0.53,,,,,,,,,,,,,,,,,0.51,true,328098,328097.78,327597.78,327598,327614.44,328384.8,,,
stimulus,canvas.Screen,0_8_38_1,2022-07-15T14:42:10.440Z,,,,,,4,1210.2000000000116,response,,0.51,0.53,,,https://raw.githubusercontent.com/carero2/loss-perception/main/png/0.51blue1yellowb%3D1w%3D100v%3D92.png,https://raw.githubusercontent.com/carero2/loss-perception/main/png/0.53blue1yellowb%3D1w%3D100v%3D92.png,,,,,,,,,true,j,keypress(j),0.53,0.51,true,329605,329595,328097.78,328385,328384.8,329606.9,,,
choice,canvas.Screen,0_8_38_2,2022-07-15T14:42:11.432Z,,,,0.53,,4,1007.539999999979,timeout,,,0.53,,0.51,,,6,80,,,,,,,,,,,0.51,true,330598,330597.78,329606.84,329607,329606.9,330614.44,180,,
ITI,canvas.Screen,0_8_38_3,2022-07-15T14:42:11.933Z,,,2065,,,4,500.0200000000186,timeout,,,0.53,,,,,,,,,,,,,,,,,0.51,true,331098,331097.78,330597.78,330598,330614.44,331114.46,,,
trial,flow.Sequence,0_8_38,2022-07-15T14:42:11.933Z,,,,,,4,3483.3400000000256,completion,,,0.53,,,,,,,,,,,,,,,,,0.51,true,331099,331097.78,327597.78,327598,327614.44,331114.46,,,
fixation,canvas.Screen,0_8_39_0,2022-07-15T14:42:12.432Z,,,,,,2,682.5799999999581,timeout,,,0.495,,,,,,,,,,,,,,,,,0.485,false,331598,331597.8,331097.78,331099,331114.46,331797.04,,,
stimulus,canvas.Screen,0_8_39_1,2022-07-15T14:42:14.080Z,,,,,,2,1436.960000000021,response,,0.495,0.495,,,https://raw.githubusercontent.com/carero2/loss-perception/main/png/0.495blue1yellowb%3D1w%3D100v%3D91.png,https://raw.githubusercontent.com/carero2/loss-perception/main/png/0.485blue1yellowb%3D1w%3D100v%3D91.png,,,,,,,,,true,f,keypress(f),0.485,0.485,false,333245,333234,331597.8,331797,331797.04,333246.88,,,
choice,canvas.Screen,0_8_39_2,2022-07-15T14:42:15.066Z,,,,0.495,,2,1000.9000000000233,timeout,,,0.495,,0.485,,,-1,79,,,,,,,,,,,0.485,false,334231,334231.12,333246.82,333246,333246.88,334247.78,179,,
ITI,canvas.Screen,0_8_39_3,2022-07-15T14:42:15.566Z,,,2982,,,2,500,timeout,,,0.495,,,,,,,,,,,,,,,,,0.485,false,334731,334731.12,334231.12,334231,334247.78,334747.78,,,
trial,flow.Sequence,0_8_39,2022-07-15T14:42:15.566Z,,,,,,2,3616.6599999999744,completion,,,0.495,,,,,,,,,,,,,,,,,0.485,false,334731,334731.12,331097.78,331099,331114.46,334747.78,,,
fixation,canvas.Screen,0_8_40_0,2022-07-15T14:42:16.066Z,,,,,,2,663.6399999999558,timeout,,,0.505,,,,,,,,,,,,,,,,,0.495,false,335231,335231.12,334731.12,334731,334747.78,335411.42,,,
stimulus,canvas.Screen,0_8_40_1,2022-07-15T14:42:17.784Z,,,,,,2,1526.5800000000163,response,,0.505,0.505,,,https://raw.githubusercontent.com/carero2/loss-perception/main/png/0.505blue1yellowb%3D1w%3D100v%3D46.png,https://raw.githubusercontent.com/carero2/loss-perception/main/png/0.495blue1yellowb%3D1w%3D100v%3D46.png,,,,,,,,,true,f,keypress(f),0.495,0.495,false,336949,336938,335231.12,335411,335411.42,336950.46,,,
choice,canvas.Screen,0_8_40_2,2022-07-15T14:42:18.766Z,,,,0.505,,2,997.320000000007,timeout,,,0.505,,0.495,,,1,80,,,,,,,,,,,0.495,false,337932,337931.12,336950.4,336951,336950.46,337947.78,180,,
ITI,canvas.Screen,0_8_40_3,2022-07-15T14:42:19.266Z,,,2878,,,2,500,timeout,,,0.505,,,,,,,,,,,,,,,,,0.495,false,338431,338431.12,337931.12,337932,337947.78,338447.78,,,
trial,flow.Sequence,0_8_40,2022-07-15T14:42:19.266Z,,,,,,2,3683.3399999999674,completion,,,0.505,,,,,,,,,,,,,,,,,0.495,false,338431,338431.12,334731.12,334731,334747.78,338447.78,,,
fixation,canvas.Screen,0_8_41_0,2022-07-15T14:42:19.766Z,,,,,,4,747.359999999986,timeout,,,0.49,,,,,,,,,,,,,,,,,0.47,false,338931,338931.12,338431.12,338432,338447.78,339195.14,,,
stimulus,canvas.Screen,0_8_41_1,2022-07-15T14:42:21.376Z,,,,,,4,1335.859999999986,response,,0.49,0.49,,,https://raw.githubusercontent.com/carero2/loss-perception/main/png/0.49blue1yellowb%3D1w%3D100v%3D64.png,https://raw.githubusercontent.com/carero2/loss-perception/main/png/0.47blue1yellowb%3D1w%3D100v%3D64.png,,,,,,,,,true,f,keypress(f),0.47,0.47,false,340542,340531,338931.12,339195,339195.14,340542.88,,,
choice,canvas.Screen,0_8_41_2,2022-07-15T14:42:22.367Z,,,,0.49,,4,1004.9000000000233,timeout,,,0.49,,0.47,,,-2,78,,,,,,,,,,,0.47,false,341532,341531.12,340542.82,340543,340542.88,341547.78,178,,
ITI,canvas.Screen,0_8_41_3,2022-07-15T14:42:22.866Z,,,2247,,,4,500.0199999999604,timeout,,,0.49,,,,,,,,,,,,,,,,,0.47,false,342032,342031.12,341531.12,341533,341547.78,342047.8,,,
trial,flow.Sequence,0_8_41,2022-07-15T14:42:22.867Z,,,,,,4,3583.3399999999674,completion,,,0.49,,,,,,,,,,,,,,,,,0.47,false,342032,342031.12,338431.12,338432,338447.78,342047.8,,,
fixation,canvas.Screen,0_8_42_0,2022-07-15T14:42:23.366Z,,,,,,2,663.5800000000163,timeout,,,0.515,,,,,,,,,,,,,,,,,0.505,false,342532,342531.12,342031.12,342032,342047.8,342711.38,,,
stimulus,canvas.Screen,0_8_42_1,2022-07-15T14:42:25.152Z,,,,,,2,1601.6199999999953,response,,0.515,0.515,,,https://raw.githubusercontent.com/carero2/loss-perception/main/png/0.515blue1yellowb%3D1w%3D100v%3D34.png,https://raw.githubusercontent.com/carero2/loss-perception/main/png/0.505blue1yellowb%3D1w%3D100v%3D34.png,,,,,,,,,true,j,keypress(j),0.505,0.505,false,344317,344313,342531.12,342711,342711.38,344319.44,,,
choice,canvas.Screen,0_8_42_2,2022-07-15T14:42:26.133Z,,,,0.505,,2,995.0200000000186,timeout,,,0.515,,0.515,,,1,79,,,,,,,,,,,0.505,false,345298,345297.8,344319.36,344319,344319.44,345314.46,179,,
ITI,canvas.Screen,0_8_42_3,2022-07-15T14:42:26.633Z,,,2467,,,2,500,timeout,,,0.515,,,,,,,,,,,,,,,,,0.505,false,345799,345797.78,345297.8,345298,345314.46,345814.46,,,
trial,flow.Sequence,0_8_42,2022-07-15T14:42:26.633Z,,,,,,2,3749.9800000000396,completion,,,0.515,,,,,,,,,,,,,,,,,0.505,false,345799,345797.78,342031.12,342032,342047.8,345814.46,,,
fixation,canvas.Screen,0_8_43_0,2022-07-15T14:42:27.133Z,,,,,,4,657.820000000007,timeout,,,0.51,,,,,,,,,,,,,,,,,0.49,false,346298,346297.8,345797.78,345799,345814.46,346472.28,,,
stimulus,canvas.Screen,0_8_43_1,2022-07-15T14:42:28.568Z,,,,,,4,1247.719999999972,response,,0.51,0.51,,,https://raw.githubusercontent.com/carero2/loss-perception/main/png/0.51blue1yellowb%3D1w%3D100v%3D34.png,https://raw.githubusercontent.com/carero2/loss-perception/main/png/0.49blue1yellowb%3D1w%3D100v%3D34.png,,,,,,,,,true,f,keypress(f),0.49,0.49,false,347733,347720,346297.8,346472,346472.28,347735.06,,,
choice,canvas.Screen,0_8_43_2,2022-07-15T14:42:29.550Z,,,,0.51,,4,996.0599999999977,timeout,,,0.51,,0.49,,,2,81,,,,,,,,,,,0.49,false,348715,348714.46,347734.94,347734,347735.06,348731.12,181,,
ITI,canvas.Screen,0_8_43_3,2022-07-15T14:42:30.049Z,,,2326,,,4,500.0200000000186,timeout,,,0.51,,,,,,,,,,,,,,,,,0.49,false,349215,349214.46,348714.46,348715,348731.12,349231.14,,,
trial,flow.Sequence,0_8_43,2022-07-15T14:42:30.050Z,,,,,,4,3400,completion,,,0.51,,,,,,,,,,,,,,,,,0.49,false,349215,349214.46,345797.78,345799,345814.46,349231.14,,,
fixation,canvas.Screen,0_8_44_0,2022-07-15T14:42:30.549Z,,,,,,6,652.7000000000116,timeout,,,0.485,,,,,,,,,,,,,,,,,0.455,true,349715,349714.46,349214.46,349216,349231.14,349883.84,,,
stimulus,canvas.Screen,0_8_44_1,2022-07-15T14:42:31.624Z,,,,,,6,897.1599999999744,response,,0.455,0.485,,,https://raw.githubusercontent.com/carero2/loss-perception/main/png/0.455blue1yellowb%3D1w%3D100v%3D10.png,https://raw.githubusercontent.com/carero2/loss-perception/main/png/0.485blue1yellowb%3D1w%3D100v%3D10.png,,,,,,,,,true,j,keypress(j),0.485,0.455,true,350789,350781,349714.46,349884,349883.84,350791.1,,,
choice,canvas.Screen,0_8_44_2,2022-07-15T14:42:32.616Z,,,,0.485,,6,1006.7000000000116,timeout,,,0.485,,0.455,,,-3,78,,,,,,,,,,,0.455,true,351781,351781.12,350791.04,350791,350791.1,351797.8,178,,
ITI,canvas.Screen,0_8_44_3,2022-07-15T14:42:33.116Z,,,2870,,,6,500,timeout,,,0.485,,,,,,,,,,,,,,,,,0.455,true,352282,352281.12,351781.12,351781,351797.8,352297.8,,,
trial,flow.Sequence,0_8_44,2022-07-15T14:42:33.116Z,,,,,,6,3049.9799999999814,completion,,,0.485,,,,,,,,,,,,,,,,,0.455,true,352282,352281.12,349214.46,349216,349231.14,352297.8,,,
1st block,flow.Loop,0_8,2022-07-15T14:42:33.116Z,,,,,,,152555.54,completion,,,,,,,,,,,,,,,,,,,,,,352282,352281.12,199725.48,199726,199725.58,352297.8,,,
show amount,html.Screen,0_9,2022-07-15T14:42:41.467Z,,,,,,,8327.200000000012,response,,,,,,,,,,,,,,,,,Continue,click #Continue,,,,360633,360625,352281.12,352283,352297.8,360647.8,,,
second block,canvas.Screen,0_10,2022-07-15T14:42:43.840Z,,,,,,,2352.2000000000116,response,,,,,,,,,,,,,,,,,space,keypress(Space),,,,363005,363000,360631.8,360633,360647.8,363005.96,,,
fixation,canvas.Screen,0_11_0_0,2022-07-15T14:42:44.316Z,,,,,,2,634.2599999999511,timeout,,,0.515,,,,,,,,,,,,,,,,,0.505,false,363481,363481.14,363005.9,363006,363005.96,363640.22,,,
stimulus,canvas.Screen,0_11_0_1,2022-07-15T14:42:45.520Z,,,,,,2,1031.780000000028,response,,0.515,0.515,,,https://raw.githubusercontent.com/carero2/loss-perception/main/png/0.515blue1yellowb%3D1w%3D100v%3D85.png,https://raw.githubusercontent.com/carero2/loss-perception/main/png/0.505blue1yellowb%3D1w%3D100v%3D85.png,,,,,,,,,true,f,keypress(f),0.505,0.505,false,364685,364672,363481.14,363640,363640.22,364687.86,,,
choice,canvas.Screen,0_11_0_2,2022-07-15T14:42:46.499Z,,,,0.515,,2,993.2600000000093,timeout,,,0.515,,0.505,,,3,,3,,,,,,,,,,0.505,false,365665,365664.46,364687.8,364687,364687.86,365681.12,181,,
ITI,canvas.Screen,0_11_0_3,2022-07-15T14:42:46.999Z,,,2421,,,2,500.0200000000186,timeout,,,0.515,,,,,,,,,,,,,,,,,0.505,false,366165,366164.46,365664.46,365665,365681.12,366181.14,,,
trial,flow.Sequence,0_11_0,2022-07-15T14:42:46.999Z,,,,,,2,3158.5,completion,,,0.515,,,,,,,,,,,,,,,,,0.505,false,366165,366164.46,363005.9,363006,363005.96,366181.14,,,
fixation,canvas.Screen,0_11_1_0,2022-07-15T14:42:47.499Z,,,,,,6,669.8399999999674,timeout,,,0.485,,,,,,,,,,,,,,,,,0.455,true,366665,366664.46,366164.46,366166,366181.14,366850.98,,,
stimulus,canvas.Screen,0_11_1_1,2022-07-15T14:42:48.223Z,,,,,,6,524.0200000000186,response,,0.455,0.485,,,https://raw.githubusercontent.com/carero2/loss-perception/main/png/0.455blue1yellowb%3D1w%3D100v%3D72.png,https://raw.githubusercontent.com/carero2/loss-perception/main/png/0.485blue1yellowb%3D1w%3D100v%3D72.png,,,,,,,,,true,j,keypress(j),0.485,0.455,true,367389,367375,366664.46,366851,366850.98,367391.02,,,
choice,canvas.Screen,0_11_1_2,2022-07-15T14:42:49.216Z,,,,0.485,,6,1006.7799999999697,timeout,,,0.485,,0.455,,,-3,,0,,,,,,,,,,0.455,true,368382,368381.14,367390.96,367391,367391.02,368397.8,178,,
ITI,canvas.Screen,0_11_1_3,2022-07-15T14:42:49.716Z,,,2729,,,6,500,timeout,,,0.485,,,,,,,,,,,,,,,,,0.455,true,368881,368881.14,368381.14,368382,368397.8,368897.8,,,
trial,flow.Sequence,0_11_1,2022-07-15T14:42:49.716Z,,,,,,6,2700,completion,,,0.485,,,,,,,,,,,,,,,,,0.455,true,368882,368881.14,366164.46,366166,366181.14,368897.8,,,
fixation,canvas.Screen,0_11_2_0,2022-07-15T14:42:50.216Z,,,,,,4,665,timeout,,,0.53,,,,,,,,,,,,,,,,,0.51,false,369382,369381.14,368881.14,368882,368897.8,369562.8,,,
stimulus,canvas.Screen,0_11_2_1,2022-07-15T14:42:51.760Z,,,,,,4,1359.2000000000116,response,,0.53,0.53,,,https://raw.githubusercontent.com/carero2/loss-perception/main/png/0.53blue1yellowb%3D1w%3D100v%3D99.png,https://raw.githubusercontent.com/carero2/loss-perception/main/png/0.51blue1yellowb%3D1w%3D100v%3D99.png,,,,,,,,,true,j,keypress(j),0.51,0.51,false,370925,370922,369381.14,369563,369562.8,370927.42,,,
choice,canvas.Screen,0_11_2_2,2022-07-15T14:42:52.749Z,,,,0.51,,4,1003.7200000000303,timeout,,,0.53,,0.53,,,2,,2,,,,,,,,,,0.51,false,371915,371914.48,370927.34,370927,370927.42,371931.14,180,,
ITI,canvas.Screen,0_11_2_3,2022-07-15T14:42:53.249Z,,,2279,,,4,500,timeout,,,0.53,,,,,,,,,,,,,,,,,0.51,false,372415,372414.48,371914.48,371915,371931.14,372431.14,,,
trial,flow.Sequence,0_11_2,2022-07-15T14:42:53.250Z,,,,,,4,3516.679999999993,completion,,,0.53,,,,,,,,,,,,,,,,,0.51,false,372415,372414.48,368881.14,368882,368897.8,372431.14,,,
fixation,canvas.Screen,0_11_3_0,2022-07-15T14:42:53.749Z,,,,,,6,685.9799999999814,timeout,,,0.545,,,,,,,,,,,,,,,,,0.515,true,372915,372914.48,372414.48,372415,372431.14,373117.12,,,
stimulus,canvas.Screen,0_11_3_1,2022-07-15T14:42:54.784Z,,,,,,6,820.8800000000047,response,,0.515,0.545,,,https://raw.githubusercontent.com/carero2/loss-perception/main/png/0.515blue1yellowb%3D1w%3D100v%3D12.png,https://raw.githubusercontent.com/carero2/loss-perception/main/png/0.545blue1yellowb%3D1w%3D100v%3D12.png,,,,,,,,,true,j,keypress(j),0.545,0.515,true,373949,373938,372914.48,373117,373117.12,373950.74,,,
choice,canvas.Screen,0_11_3_2,2022-07-15T14:42:55.766Z,,,,0.545,,6,997.0599999999977,timeout,,,0.545,,0.515,,,9,,11,,,,,,,,,,0.515,true,374932,374931.14,373950.68,373951,373950.74,374947.8,189,,
ITI,canvas.Screen,0_11_3_3,2022-07-15T14:42:56.266Z,,,2508,,,6,500,timeout,,,0.545,,,,,,,,,,,,,,,,,0.515,true,375432,375431.14,374931.14,374932,374947.8,375447.8,,,
trial,flow.Sequence,0_11_3,2022-07-15T14:42:56.266Z,,,,,,6,3000,completion,,,0.545,,,,,,,,,,,,,,,,,0.515,true,375432,375431.14,372414.48,372415,372431.14,375447.8,,,
fixation,canvas.Screen,0_11_4_0,2022-07-15T14:42:56.766Z,,,,,,6,651.5599999999977,timeout,,,0.515,,,,,,,,,,,,,,,,,0.485,false,375931,375931.16,375431.14,375432,375447.8,376099.36,,,
stimulus,canvas.Screen,0_11_4_1,2022-07-15T14:42:57.904Z,,,,,,6,963.640000000014,response,,0.515,0.515,,,https://raw.githubusercontent.com/carero2/loss-perception/main/png/0.515blue1yellowb%3D1w%3D100v%3D6.png,https://raw.githubusercontent.com/carero2/loss-perception/main/png/0.485blue1yellowb%3D1w%3D100v%3D6.png,,,,,,,,,true,f,keypress(f),0.485,0.485,false,377069,377063,375931.16,376100,376099.36,377070.54,,,
choice,canvas.Screen,0_11_4_2,2022-07-15T14:42:58.883Z,,,,0.515,,6,993.9400000000023,timeout,,,0.515,,0.485,,,3,,14,,,,,,,,,,0.485,false,378048,378047.8,377070.48,377070,377070.54,378064.48,192,,
ITI,canvas.Screen,0_11_4_3,2022-07-15T14:42:59.382Z,,,2248,,,6,500,timeout,,,0.515,,,,,,,,,,,,,,,,,0.485,false,378548,378547.8,378047.8,378048,378064.48,378564.48,,,
trial,flow.Sequence,0_11_4,2022-07-15T14:42:59.382Z,,,,,,6,3100,completion,,,0.515,,,,,,,,,,,,,,,,,0.485,false,378548,378547.8,375431.14,375432,375447.8,378564.48,,,
fixation,canvas.Screen,0_11_5_0,2022-07-15T14:42:59.883Z,,,,,,2,711.1000000000349,timeout,,,0.505,,,,,,,,,,,,,,,,,0.495,false,379048,379047.82,378547.8,378548,378564.48,379275.58,,,
stimulus,canvas.Screen,0_11_5_1,2022-07-15T14:43:01.600Z,,,,,,2,1474.4199999999837,response,,0.505,0.505,,,https://raw.githubusercontent.com/carero2/loss-perception/main/png/0.505blue1yellowb%3D1w%3D100v%3D82.png,https://raw.githubusercontent.com/carero2/loss-perception/main/png/0.495blue1yellowb%3D1w%3D100v%3D82.png,,,,,,,,,true,j,keypress(j),0.495,0.495,false,380766,380750,379047.82,379276,379275.58,380766.74,,,
choice,canvas.Screen,0_11_5_2,2022-07-15T14:43:02.582Z,,,,0.495,,2,997.7399999999907,timeout,,,0.505,,0.505,,,-1,,13,,,,,,,,,,0.495,false,381748,381747.82,380766.68,380767,380766.74,381764.48,191,,
ITI,canvas.Screen,0_11_5_3,2022-07-15T14:43:03.082Z,,,2098,,,2,500,timeout,,,0.505,,,,,,,,,,,,,,,,,0.495,false,382248,382247.8,381747.82,381748,381764.48,382264.48,,,
trial,flow.Sequence,0_11_5,2022-07-15T14:43:03.082Z,,,,,,2,3683.320000000007,completion,,,0.505,,,,,,,,,,,,,,,,,0.495,false,382248,382247.8,378547.8,378548,378564.48,382264.48,,,
fixation,canvas.Screen,0_11_6_0,2022-07-15T14:43:03.583Z,,,,,,2,719.3600000000442,timeout,,,0.495,,,,,,,,,,,,,,,,,0.485,true,382748,382747.8,382247.8,382249,382264.48,382983.84,,,
stimulus,canvas.Screen,0_11_6_1,2022-07-15T14:43:04.744Z,,,,,,2,922.1599999999744,response,,0.485,0.495,,,https://raw.githubusercontent.com/carero2/loss-perception/main/png/0.485blue1yellowb%3D1w%3D100v%3D85.png,https://raw.githubusercontent.com/carero2/loss-perception/main/png/0.495blue1yellowb%3D1w%3D100v%3D85.png,,,,,,,,,true,j,keypress(j),0.495,0.485,true,383909,383906,382747.8,382984,382983.84,383910.82,,,
choice,canvas.Screen,0_11_6_2,2022-07-15T14:43:05.733Z,,,,0.495,,2,1003.6599999999744,timeout,,,0.495,,0.485,,,-1,,12,,,,,,,,,,0.485,true,384898,384897.82,383910.74,383911,383910.82,384914.48,190,,
ITI,canvas.Screen,0_11_6_3,2022-07-15T14:43:06.233Z,,,2401,,,2,500,timeout,,,0.495,,,,,,,,,,,,,,,,,0.485,true,385398,385397.82,384897.82,384898,384914.48,385414.48,,,
trial,flow.Sequence,0_11_6,2022-07-15T14:43:06.233Z,,,,,,2,3133.3400000000256,completion,,,0.495,,,,,,,,,,,,,,,,,0.485,true,385398,385397.82,382247.8,382249,382264.48,385414.48,,,
fixation,canvas.Screen,0_11_7_0,2022-07-15T14:43:06.732Z,,,,,,4,664.4800000000396,timeout,,,0.51,,,,,,,,,,,,,,,,,0.49,false,385898,385897.82,385397.82,385398,385414.48,386078.96,,,
stimulus,canvas.Screen,0_11_7_1,2022-07-15T14:43:08.880Z,,,,,,4,1952.039999999979,response,,0.51,0.51,,,https://raw.githubusercontent.com/carero2/loss-perception/main/png/0.51blue1yellowb%3D1w%3D100v%3D90.png,https://raw.githubusercontent.com/carero2/loss-perception/main/png/0.49blue1yellowb%3D1w%3D100v%3D90.png,,,,,,,,,true,f,keypress(f),0.49,0.49,false,388045,388031,385897.82,386079,386078.96,388046.9,,,
choice,canvas.Screen,0_11_7_2,2022-07-15T14:43:09.867Z,,,,0.51,,4,1000.9199999999837,timeout,,,0.51,,0.49,,,2,,14,,,,,,,,,,0.49,false,389031,389031.14,388046.84,388047,388046.9,389047.82,192,,
ITI,canvas.Screen,0_11_7_3,2022-07-15T14:43:10.366Z,,,2354,,,4,500,timeout,,,0.51,,,,,,,,,,,,,,,,,0.49,false,389532,389531.16,389031.14,389031,389047.82,389547.82,,,
trial,flow.Sequence,0_11_7,2022-07-15T14:43:10.366Z,,,,,,4,4116.679999999993,completion,,,0.51,,,,,,,,,,,,,,,,,0.49,false,389532,389531.16,385397.82,385398,385414.48,389547.82,,,
fixation,canvas.Screen,0_11_8_0,2022-07-15T14:43:10.866Z,,,,,,4,731.7199999999721,timeout,,,0.49,,,,,,,,,,,,,,,,,0.47,true,390032,390031.16,389531.16,389532,389547.82,390279.54,,,
stimulus,canvas.Screen,0_11_8_1,2022-07-15T14:43:12.120Z,,,,,,4,1001.460000000021,response,,0.47,0.49,,,https://raw.githubusercontent.com/carero2/loss-perception/main/png/0.47blue1yellowb%3D1w%3D100v%3D4.png,https://raw.githubusercontent.com/carero2/loss-perception/main/png/0.49blue1yellowb%3D1w%3D100v%3D4.png,,,,,,,,,true,j,keypress(j),0.49,0.47,true,391286,391281,390031.16,390280,390279.54,391289.2,,,
choice,canvas.Screen,0_11_8_2,2022-07-15T14:43:13.099Z,,,,0.49,,4,991.9400000000023,timeout,,,0.49,,0.47,,,-2,,12,,,,,,,,,,0.47,true,392265,392264.48,391289.12,391289,391289.2,392281.14,190,,
ITI,canvas.Screen,0_11_8_3,2022-07-15T14:43:13.600Z,,,2635,,,4,500,timeout,,,0.49,,,,,,,,,,,,,,,,,0.47,true,392765,392764.48,392264.48,392265,392281.14,392781.14,,,
trial,flow.Sequence,0_11_8,2022-07-15T14:43:13.600Z,,,,,,4,3216.6599999999744,completion,,,0.49,,,,,,,,,,,,,,,,,0.47,true,392765,392764.48,389531.16,389532,389547.82,392781.14,,,
fixation,canvas.Screen,0_11_9_0,2022-07-15T14:43:14.099Z,,,,,,4,514.9199999999837,timeout,,,0.51,,,,,,,,,,,,,,,,,0.49,true,393265,393264.48,392764.48,392766,392781.14,393296.06,,,
stimulus,canvas.Screen,0_11_9_1,2022-07-15T14:43:15.096Z,,,,,,4,954.9400000000023,response,,0.49,0.51,,,https://raw.githubusercontent.com/carero2/loss-perception/main/png/0.49blue1yellowb%3D1w%3D100v%3D73.png,https://raw.githubusercontent.com/carero2/loss-perception/main/png/0.51blue1yellowb%3D1w%3D100v%3D73.png,,,,,,,,,true,j,keypress(j),0.51,0.49,true,394262,394251,393264.48,393297,393296.06,394263.3,,,
choice,canvas.Screen,0_11_9_2,2022-07-15T14:43:16.083Z,,,,0.51,,4,1001.179999999993,timeout,,,0.51,,0.49,,,2,,14,,,,,,,,,,0.49,true,395249,395247.82,394263.24,394263,394263.3,395264.48,192,,
ITI,canvas.Screen,0_11_9_3,2022-07-15T14:43:16.583Z,,,2306,,,4,500,timeout,,,0.51,,,,,,,,,,,,,,,,,0.49,true,395748,395747.82,395247.82,395249,395264.48,395764.48,,,
trial,flow.Sequence,0_11_9,2022-07-15T14:43:16.583Z,,,,,,4,2966.679999999993,completion,,,0.51,,,,,,,,,,,,,,,,,0.49,true,395748,395747.82,392764.48,392765,392781.14,395764.48,,,
fixation,canvas.Screen,0_11_10_0,2022-07-15T14:43:17.083Z,,,,,,2,681.2600000000093,timeout,,,0.505,,,,,,,,,,,,,,,,,0.495,false,396248,396247.82,395747.82,395748,395764.48,396445.74,,,
stimulus,canvas.Screen,0_11_10_1,2022-07-15T14:43:18.128Z,,,,,,2,835.2600000000093,response,,0.505,0.505,,,https://raw.githubusercontent.com/carero2/loss-perception/main/png/0.505blue1yellowb%3D1w%3D100v%3D25.png,https://raw.githubusercontent.com/carero2/loss-perception/main/png/0.495blue1yellowb%3D1w%3D100v%3D25.png,,,,,,,,,true,f,keypress(f),0.495,0.495,false,397293,397281,396247.82,396446,396445.74,397295.1,,,
choice,canvas.Screen,0_11_10_2,2022-07-15T14:43:19.116Z,,,,0.505,,2,1002.7200000000303,timeout,,,0.505,,0.495,,,1,,15,,,,,,,,,,0.495,false,398281,398281.16,397295.04,397295,397295.1,398297.82,193,,
ITI,canvas.Screen,0_11_10_3,2022-07-15T14:43:19.616Z,,,2564,,,2,500,timeout,,,0.505,,,,,,,,,,,,,,,,,0.495,false,398782,398781.16,398281.16,398281,398297.82,398797.82,,,
trial,flow.Sequence,0_11_10,2022-07-15T14:43:19.616Z,,,,,,2,3016.679999999993,completion,,,0.505,,,,,,,,,,,,,,,,,0.495,false,398782,398781.16,395747.82,395748,395764.48,398797.82,,,
fixation,canvas.Screen,0_11_11_0,2022-07-15T14:43:20.116Z,,,,,,6,684.7600000000093,timeout,,,0.485,,,,,,,,,,,,,,,,,0.455,true,399282,399281.16,398781.16,398782,398797.82,399482.58,,,
stimulus,canvas.Screen,0_11_11_1,2022-07-15T14:43:21.063Z,,,,,,6,736.4199999999837,response,,0.455,0.485,,,https://raw.githubusercontent.com/carero2/loss-perception/main/png/0.455blue1yellowb%3D1w%3D100v%3D96.png,https://raw.githubusercontent.com/carero2/loss-perception/main/png/0.485blue1yellowb%3D1w%3D100v%3D96.png,,,,,,,,,true,j,keypress(j),0.485,0.455,true,400229,400219,399281.16,399483,399482.58,400231.02,,,
choice,canvas.Screen,0_11_11_2,2022-07-15T14:43:22.049Z,,,,0.485,,6,1000.1399999999558,timeout,,,0.485,,0.455,,,-3,,12,,,,,,,,,,0.455,true,401215,401214.48,400230.96,400231,400231.02,401231.16,190,,
ITI,canvas.Screen,0_11_11_3,2022-07-15T14:43:22.549Z,,,2035,,,6,500,timeout,,,0.485,,,,,,,,,,,,,,,,,0.455,true,401715,401714.5,401214.48,401215,401231.16,401731.16,,,
trial,flow.Sequence,0_11_11,2022-07-15T14:43:22.549Z,,,,,,6,2916.679999999993,completion,,,0.485,,,,,,,,,,,,,,,,,0.455,true,401715,401714.5,398781.16,398782,398797.82,401731.16,,,
fixation,canvas.Screen,0_11_12_0,2022-07-15T14:43:23.049Z,,,,,,6,664.5800000000163,timeout,,,0.545,,,,,,,,,,,,,,,,,0.515,false,402215,402214.48,401714.5,401715,401731.16,402395.74,,,
stimulus,canvas.Screen,0_11_12_1,2022-07-15T14:43:24.032Z,,,,,,6,792.2600000000093,response,,0.545,0.545,,,https://raw.githubusercontent.com/carero2/loss-perception/main/png/0.545blue1yellowb%3D1w%3D100v%3D32.png,https://raw.githubusercontent.com/carero2/loss-perception/main/png/0.515blue1yellowb%3D1w%3D100v%3D32.png,,,,,,,,,true,f,keypress(f),0.515,0.515,false,403197,403188,402214.48,402396,402395.74,403199.26,,,
choice,canvas.Screen,0_11_12_2,2022-07-15T14:43:25.016Z,,,,0.545,,6,998.5599999999977,timeout,,,0.545,,0.515,,,9,,21,,,,,,,,,,0.515,false,404182,404181.16,403199.2,403199,403199.26,404197.82,199,,
ITI,canvas.Screen,0_11_12_3,2022-07-15T14:43:25.517Z,,,2782,,,6,500,timeout,,,0.545,,,,,,,,,,,,,,,,,0.515,false,404682,404681.16,404181.16,404182,404197.82,404697.82,,,
trial,flow.Sequence,0_11_12,2022-07-15T14:43:25.517Z,,,,,,6,2950,completion,,,0.545,,,,,,,,,,,,,,,,,0.515,false,404682,404681.16,401714.5,401715,401731.16,404697.82,,,
fixation,canvas.Screen,0_11_13_0,2022-07-15T14:43:26.016Z,,,,,,4,500,timeout,,,0.53,,,,,,,,,,,,,,,,,0.51,true,405182,405181.16,404681.16,404682,404697.82,405197.82,,,
stimulus,canvas.Screen,0_11_13_1,2022-07-15T14:43:26.720Z,,,,,,4,677.179999999993,response,,0.51,0.53,,,https://raw.githubusercontent.com/carero2/loss-perception/main/png/0.51blue1yellowb%3D1w%3D100v%3D99.png,https://raw.githubusercontent.com/carero2/loss-perception/main/png/0.53blue1yellowb%3D1w%3D100v%3D99.png,,,,,,,,,true,j,keypress(j),0.53,0.51,true,405885,405875,405181.16,405183,405197.82,405886.92,,,
choice,canvas.Screen,0_11_13_2,2022-07-15T14:43:27.700Z,,,,0.53,,4,994.2399999999907,timeout,,,0.53,,0.51,,,6,,27,,,,,,,,,,0.51,true,406865,406864.5,405886.86,405887,405886.92,406881.16,205,,
ITI,canvas.Screen,0_11_13_3,2022-07-15T14:43:28.199Z,,,2070,,,4,500,timeout,,,0.53,,,,,,,,,,,,,,,,,0.51,true,407365,407364.5,406864.5,406865,406881.16,407381.16,,,
trial,flow.Sequence,0_11_13,2022-07-15T14:43:28.199Z,,,,,,4,2666.679999999993,completion,,,0.53,,,,,,,,,,,,,,,,,0.51,true,407365,407364.5,404681.16,404682,404697.82,407381.16,,,
