sender,sender_type,sender_id,timestamp,meta,,ITI_value,choice,consent,diff_net_value,duration,ended_on,gain_color,left,left_side,loss_color,not_choice,picture_left,picture_right,points,points1Block,points2Block,points3Block,points4Block,points5Block,points6Block,pointsBlock,responded,response,response_action,right,right_side,switch_sides,time_commit,time_end,time_render,time_run,time_show,time_switch,totalPoints,totalPoints_practice,url
welcome,html.Screen,0_0,2022-07-15T14:23:07.663Z,"{""labjs_version"":""20.2.4"",""labjs_build"":{""flavor"":""production"",""commit"":""f5b4a49f956347addd546a832a3327688c2c0fef""},""location"":""https://run.pavlovia.org/Rey/loss-perception/"",""userAgent"":""Mozilla/5.0 (Macintosh; Intel Mac OS X 10_15_7) AppleWebKit/605.1.15 (KHTML, like Gecko) Version/14.1.1 Safari/605.1.15"",""platform"":""MacIntel"",""language"":""en-gb"",""locale"":""en-GB"",""timeZone"":""Europe/London"",""timezoneOffset"":-60,""screen_width"":1440,""screen_height"":900,""scroll_width"":1440,""scroll_height"":772,""window_innerWidth"":1440,""window_innerHeight"":820,""devicePixelRatio"":2}",,,,,,1971,response,blue,,,yellow,,,,,0,0,0,0,0,0,0,,Continue,click #Continue,,,,14471,14451,12480,12474,12495,14504,100,100,{}
consent,html.Form,0_1,2022-07-15T14:23:15.289Z,,,,,true,,7593,form submission,,,,,,,,,,,,,,,,,,,,,,22097,22097,14487,14472,14504,22112,,,
ProlificID,html.Form,0_2,2022-07-15T14:23:19.085Z,,,,,,,3781,form submission,,,,,,,,,,,,,,,,,,,,,,25894.000000000004,25893,22108,22098,22112,25912,,,
instructions,html.Form,0_3,2022-07-15T14:24:16.566Z,,,,,,,57461,form submission,,,,,,,,,,,,,,,,,,,,,,83374,83373,25906,25894.000000000004,25912,83396,,,
Practice,canvas.Screen,0_4,2022-07-15T14:24:22.207Z,,,,,,,5615,response,,,,,,,,,,,,,,,,,space,keypress(Space),,,,89016,88994,83379,83374,83396,89046,,,
fixation,canvas.Screen,0_5_0_0,2022-07-15T14:24:22.722Z,,,,,,18,500,timeout,,,0.545,,,,,,,,,,,,,,,,,0.455,true,89531,89529,89029,89016,89046,89546,,,
stimulus,canvas.Screen,0_5_0_1,2022-07-15T14:24:23.908Z,,,,,,18,1168,response,,0.455,0.545,,,https://raw.githubusercontent.com/carero2/loss-perception/main/png/0.455blue1yellowb%3D1w%3D100v%3D57.png,https://raw.githubusercontent.com/carero2/loss-perception/main/png/0.545blue1yellowb%3D1w%3D100v%3D57.png,,,,,,,,,true,j,keypress(j),0.545,0.455,true,90717,90697,89529,89531,89546,90762,,,
choice,canvas.Screen,0_5_0_2,2022-07-15T14:24:25.938Z,,,,0.545,,18,2000,timeout,,,0.545,,0.455,,,9,,,,,,,9,,,,,0.455,true,92747,92746,90746,90720,90762,92762,,109,
timeout,canvas.Screen,0_5_0_3,2022-07-15T14:24:25.941Z,,,,,,18,NaN,skipped,,,0.545,,,,,,,,,,,,,,,,,0.455,true,92749,92746,,92749,,92762,,,
ITI,canvas.Screen,0_5_0_4,2022-07-15T14:24:26.438Z,,,,,,18,500,timeout,,,0.545,,,,,,,,,,,,,,,,,0.455,true,93247,93246,92746,92749,92762,93262,,,
trial,flow.Sequence,0_5_0,2022-07-15T14:24:26.440Z,,,,,,18,4200,completion,,,0.545,,,,,,,,,,,,,,,,,0.455,true,93248,93246,89029,89016,89046,93262,,,
fixation,canvas.Screen,0_5_1_0,2022-07-15T14:24:26.938Z,,,,,,6,500,timeout,,,0.485,,,,,,,,,,,,,,,,,0.455,false,93746,93746,93246,93248,93262,93762,,,
stimulus,canvas.Screen,0_5_1_1,2022-07-15T14:24:27.982Z,,,,,,6,1025,response,,0.485,0.485,,,https://raw.githubusercontent.com/carero2/loss-perception/main/png/0.485blue1yellowb%3D1w%3D100v%3D54.png,https://raw.githubusercontent.com/carero2/loss-perception/main/png/0.455blue1yellowb%3D1w%3D100v%3D54.png,,,,,,,,,true,f,keypress(f),0.455,0.455,false,94791,94771,93746,93747,93762,94829,,,
choice,canvas.Screen,0_5_1_2,2022-07-15T14:24:30.005Z,,,,0.485,,6,2000,timeout,,,0.485,,0.455,,,-3,,,,,,,6,,,,,0.455,false,96813,96812,94813,94793,94829,96829,,106,
timeout,canvas.Screen,0_5_1_3,2022-07-15T14:24:30.007Z,,,,,,6,NaN,skipped,,,0.485,,,,,,,,,,,,,,,,,0.455,false,96815,96812,,96815,,96829,,,
ITI,canvas.Screen,0_5_1_4,2022-07-15T14:24:30.504Z,,,,,,6,500,timeout,,,0.485,,,,,,,,,,,,,,,,,0.455,false,97313,97312,96812,96816,96829,97329,,,
trial,flow.Sequence,0_5_1,2022-07-15T14:24:30.505Z,,,,,,6,4050,completion,,,0.485,,,,,,,,,,,,,,,,,0.455,false,97313,97312,93246,93248,93262,97329,,,
fixation,canvas.Screen,0_5_2_0,2022-07-15T14:24:31.005Z,,,,,,12,500,timeout,,,0.53,,,,,,,,,,,,,,,,,0.47,false,97813,97813,97312,97314,97329,97829,,,
stimulus,canvas.Screen,0_5_2_1,2022-07-15T14:24:31.598Z,,,,,,12,573,response,,0.53,0.53,,,https://raw.githubusercontent.com/carero2/loss-perception/main/png/0.53blue1yellowb%3D1w%3D100v%3D55.png,https://raw.githubusercontent.com/carero2/loss-perception/main/png/0.47blue1yellowb%3D1w%3D100v%3D55.png,,,,,,,,,true,f,keypress(f),0.47,0.47,false,98406,98386,97813,97813,97829,98446,,,
choice,canvas.Screen,0_5_2_2,2022-07-15T14:24:33.622Z,,,,0.53,,12,2000,timeout,,,0.53,,0.47,,,6,,,,,,,12,,,,,0.47,false,100430,100429,98429,98409,98446,100446,,112,
timeout,canvas.Screen,0_5_2_3,2022-07-15T14:24:33.624Z,,,,,,12,NaN,skipped,,,0.53,,,,,,,,,,,,,,,,,0.47,false,100432,100429,,100432,,100446,,,
ITI,canvas.Screen,0_5_2_4,2022-07-15T14:24:34.121Z,,,,,,12,500,timeout,,,0.53,,,,,,,,,,,,,,,,,0.47,false,100930,100929,100429,100432,100446,100946,,,
trial,flow.Sequence,0_5_2,2022-07-15T14:24:34.122Z,,,,,,12,3600,completion,,,0.53,,,,,,,,,,,,,,,,,0.47,false,100930,100929,97312,97314,97329,100946,,,
fixation,canvas.Screen,0_5_3_0,2022-07-15T14:24:34.621Z,,,,,,6,504,timeout,,,0.515,,,,,,,,,,,,,,,,,0.485,true,101430,101429,100929,100931,100946,101450,,,
stimulus,canvas.Screen,0_5_3_1,2022-07-15T14:24:35.167Z,,,,,,6,524,response,,0.485,0.515,,,https://raw.githubusercontent.com/carero2/loss-perception/main/png/0.485blue1yellowb%3D1w%3D100v%3D9.png,https://raw.githubusercontent.com/carero2/loss-perception/main/png/0.515blue1yellowb%3D1w%3D100v%3D9.png,,,,,,,,,true,j,keypress(j),0.515,0.485,true,101975.00000000001,101953,101429,101430,101450,102012,,,
choice,canvas.Screen,0_5_3_2,2022-07-15T14:24:37.188Z,,,,0.515,,6,2001,timeout,,,0.515,,0.485,,,3,,,,,,,15,,,,,0.485,true,103997,103996,101996,101978.00000000001,102012,104013,,115,
timeout,canvas.Screen,0_5_3_3,2022-07-15T14:24:37.190Z,,,,,,6,NaN,skipped,,,0.515,,,,,,,,,,,,,,,,,0.485,true,103998,103996,,103998,,104013,,,
ITI,canvas.Screen,0_5_3_4,2022-07-15T14:24:37.688Z,,,,,,6,499,timeout,,,0.515,,,,,,,,,,,,,,,,,0.485,true,104496,104496,103996,103998,104013,104512,,,
trial,flow.Sequence,0_5_3,2022-07-15T14:24:37.688Z,,,,,,6,3550,completion,,,0.515,,,,,,,,,,,,,,,,,0.485,true,104497,104496,100929,100930,100946,104512,,,
fixation,canvas.Screen,0_5_4_0,2022-07-15T14:24:38.188Z,,,,,,6,501,timeout,,,0.545,,,,,,,,,,,,,,,,,0.515,false,104997,104996,104496,104497,104512,105013,,,
stimulus,canvas.Screen,0_5_4_1,2022-07-15T14:24:39.103Z,,,,,,6,895,response,,0.545,0.545,,,https://raw.githubusercontent.com/carero2/loss-perception/main/png/0.545blue1yellowb%3D1w%3D100v%3D26.png,https://raw.githubusercontent.com/carero2/loss-perception/main/png/0.515blue1yellowb%3D1w%3D100v%3D26.png,,,,,,,,,true,f,keypress(f),0.515,0.515,false,105911,105891,104996,104997,105013,105946,,,
choice,canvas.Screen,0_5_4_2,2022-07-15T14:24:41.121Z,,,,0.545,,6,2000,timeout,,,0.545,,0.515,,,9,,,,,,,24,,,,,0.515,false,107930,107929,105929,105914,105946,107946,,124,
timeout,canvas.Screen,0_5_4_3,2022-07-15T14:24:41.123Z,,,,,,6,NaN,skipped,,,0.545,,,,,,,,,,,,,,,,,0.515,false,107932,107929,,107931,,107946,,,
ITI,canvas.Screen,0_5_4_4,2022-07-15T14:24:41.621Z,,,,,,6,499,timeout,,,0.545,,,,,,,,,,,,,,,,,0.515,false,108430,108429,107929,107932,107946,108445,,,
trial,flow.Sequence,0_5_4,2022-07-15T14:24:41.622Z,,,,,,6,3917,completion,,,0.545,,,,,,,,,,,,,,,,,0.515,false,108430,108429,104496,104497,104512,108445,,,
fixation,canvas.Screen,0_5_5_0,2022-07-15T14:24:42.122Z,,,,,,9,501,timeout,,,0.485,,,,,,,,,,,,,,,,,0.53,false,108930,108929,108429,108430,108445,108946,,,
stimulus,canvas.Screen,0_5_5_1,2022-07-15T14:24:42.707Z,,,,,,9,566,response,,0.485,0.485,,,https://raw.githubusercontent.com/carero2/loss-perception/main/png/0.485blue1yellowb%3D1w%3D100v%3D1.png,https://raw.githubusercontent.com/carero2/loss-perception/main/png/0.53blue1yellowb%3D1w%3D100v%3D1.png,,,,,,,,,true,j,keypress(j),0.53,0.53,false,109515,109495,108929,108930,108946,109545,,,
choice,canvas.Screen,0_5_5_2,2022-07-15T14:24:44.722Z,,,,0.53,,9,2001,timeout,,,0.485,,0.485,,,6,,,,,,,30,,,,,0.53,false,111530,111529,109529,109518,109545,111546,,130,
timeout,canvas.Screen,0_5_5_3,2022-07-15T14:24:44.723Z,,,,,,9,NaN,skipped,,,0.485,,,,,,,,,,,,,,,,,0.53,false,111531,111529,,111531,,111546,,,
ITI,canvas.Screen,0_5_5_4,2022-07-15T14:24:45.222Z,,,,,,9,499,timeout,,,0.485,,,,,,,,,,,,,,,,,0.53,false,112030,112029,111529,111531,111546,112045,,,
trial,flow.Sequence,0_5_5,2022-07-15T14:24:45.222Z,,,,,,9,3584,completion,,,0.485,,,,,,,,,,,,,,,,,0.53,false,112031,112029,108429,108430,108445,112045,,,
fixation,canvas.Screen,0_5_6_0,2022-07-15T14:24:45.722Z,,,,,,12,501,timeout,,,0.53,,,,,,,,,,,,,,,,,0.47,false,112530,112529,112029,112031,112045,112546,,,
stimulus,canvas.Screen,0_5_6_1,2022-07-15T14:24:46.285Z,,,,,,12,545,response,,0.53,0.53,,,https://raw.githubusercontent.com/carero2/loss-perception/main/png/0.53blue1yellowb%3D1w%3D100v%3D25.png,https://raw.githubusercontent.com/carero2/loss-perception/main/png/0.47blue1yellowb%3D1w%3D100v%3D25.png,,,,,,,,,true,f,keypress(f),0.47,0.47,false,113094.00000000001,113074,112529,112530,112546,113129,,,
choice,canvas.Screen,0_5_6_2,2022-07-15T14:24:48.305Z,,,,0.53,,12,2000,timeout,,,0.53,,0.47,,,6,,,,,,,36,,,,,0.47,false,115113,115113,113113,113096,113129,115129,,136,
timeout,canvas.Screen,0_5_6_3,2022-07-15T14:24:48.307Z,,,,,,12,NaN,skipped,,,0.53,,,,,,,,,,,,,,,,,0.47,false,115115.00000000001,115113,,115115.00000000001,,115129,,,
ITI,canvas.Screen,0_5_6_4,2022-07-15T14:24:48.804Z,,,,,,12,500,timeout,,,0.53,,,,,,,,,,,,,,,,,0.47,false,115613,115612,115113,115116,115129,115629,,,
trial,flow.Sequence,0_5_6,2022-07-15T14:24:48.804Z,,,,,,12,3567,completion,,,0.53,,,,,,,,,,,,,,,,,0.47,false,115613,115612,112029,112031,112045,115629,,,
fixation,canvas.Screen,0_5_7_0,2022-07-15T14:24:49.307Z,,,,,,9,500,timeout,,,0.485,,,,,,,,,,,,,,,,,0.53,false,116115.00000000001,116113,115612,115613,115629,116129,,,
stimulus,canvas.Screen,0_5_7_1,2022-07-15T14:24:49.963Z,,,,,,9,638,response,,0.485,0.485,,,https://raw.githubusercontent.com/carero2/loss-perception/main/png/0.485blue1yellowb%3D1w%3D100v%3D24.png,https://raw.githubusercontent.com/carero2/loss-perception/main/png/0.53blue1yellowb%3D1w%3D100v%3D24.png,,,,,,,,,true,j,keypress(j),0.53,0.53,false,116771,116751,116113,116116,116129,116813,,,
choice,canvas.Screen,0_5_7_2,2022-07-15T14:24:51.988Z,,,,0.53,,9,2000,timeout,,,0.485,,0.485,,,6,,,,,,,42,,,,,0.53,false,118797,118796,116796,116774,116813,118813,,142,
timeout,canvas.Screen,0_5_7_3,2022-07-15T14:24:51.990Z,,,,,,9,NaN,skipped,,,0.485,,,,,,,,,,,,,,,,,0.53,false,118798,118796,,118798,,118813,,,
ITI,canvas.Screen,0_5_7_4,2022-07-15T14:24:52.488Z,,,,,,9,500,timeout,,,0.485,,,,,,,,,,,,,,,,,0.53,false,119297,119296,118796,118798,118813,119313,,,
trial,flow.Sequence,0_5_7,2022-07-15T14:24:52.489Z,,,,,,9,3667,completion,,,0.485,,,,,,,,,,,,,,,,,0.53,false,119297,119296,115612,115613,115629,119313,,,
fixation,canvas.Screen,0_5_8_0,2022-07-15T14:24:52.988Z,,,,,,6,499,timeout,,,0.485,,,,,,,,,,,,,,,,,0.455,false,119797,119796,119296,119297,119313,119812,,,
stimulus,canvas.Screen,0_5_8_1,2022-07-15T14:24:54.131Z,,,,,,6,1123,response,,0.485,0.485,,,https://raw.githubusercontent.com/carero2/loss-perception/main/png/0.485blue1yellowb%3D1w%3D100v%3D99.png,https://raw.githubusercontent.com/carero2/loss-perception/main/png/0.455blue1yellowb%3D1w%3D100v%3D99.png,,,,,,,,,true,f,keypress(f),0.455,0.455,false,120939,120919,119796,119797,119812,120979,,,
choice,canvas.Screen,0_5_8_2,2022-07-15T14:24:56.156Z,,,,0.485,,6,2000,timeout,,,0.485,,0.455,,,-3,,,,,,,39,,,,,0.455,false,122965,122962,120963,120941,120979,122979,,139,
timeout,canvas.Screen,0_5_8_3,2022-07-15T14:24:56.158Z,,,,,,6,NaN,skipped,,,0.485,,,,,,,,,,,,,,,,,0.455,false,122966.00000000001,122962,,122966.00000000001,,122979,,,
ITI,canvas.Screen,0_5_8_4,2022-07-15T14:24:56.655Z,,,,,,6,500,timeout,,,0.485,,,,,,,,,,,,,,,,,0.455,false,123463.00000000001,123463,122962,122966.00000000001,122979,123479,,,
trial,flow.Sequence,0_5_8,2022-07-15T14:24:56.656Z,,,,,,6,4150,completion,,,0.485,,,,,,,,,,,,,,,,,0.455,false,123464,123463,119296,119297,119313,123479,,,
fixation,canvas.Screen,0_5_9_0,2022-07-15T14:24:57.155Z,,,,,,6,500,timeout,,,0.515,,,,,,,,,,,,,,,,,0.485,false,123963.00000000001,123963,123463,123464,123479,123979,,,
stimulus,canvas.Screen,0_5_9_1,2022-07-15T14:24:57.862Z,,,,,,6,687,response,,0.515,0.515,,,https://raw.githubusercontent.com/carero2/loss-perception/main/png/0.515blue1yellowb%3D1w%3D100v%3D41.png,https://raw.githubusercontent.com/carero2/loss-perception/main/png/0.485blue1yellowb%3D1w%3D100v%3D41.png,,,,,,,,,true,f,keypress(f),0.485,0.485,false,124670,124650,123963,123963.00000000001,123979,124712,,,
choice,canvas.Screen,0_5_9_2,2022-07-15T14:24:59.888Z,,,,0.515,,6,2000,timeout,,,0.515,,0.485,,,3,,,,,,,42,,,,,0.485,false,126697,126696,124696,124673,124712,126712,,142,
timeout,canvas.Screen,0_5_9_3,2022-07-15T14:24:59.890Z,,,,,,6,NaN,skipped,,,0.515,,,,,,,,,,,,,,,,,0.485,false,126699,126696,,126699,,126712,,,
ITI,canvas.Screen,0_5_9_4,2022-07-15T14:25:00.388Z,,,,,,6,500,timeout,,,0.515,,,,,,,,,,,,,,,,,0.485,false,127197,127196,126696,126699,126712,127212,,,
trial,flow.Sequence,0_5_9,2022-07-15T14:25:00.389Z,,,,,,6,3717,completion,,,0.515,,,,,,,,,,,,,,,,,0.485,false,127197,127196,123463,123464,123479,127212,,,
fixation,canvas.Screen,0_5_10_0,2022-07-15T14:25:00.888Z,,,,,,6,501,timeout,,,0.545,,,,,,,,,,,,,,,,,0.515,true,127697,127696,127196,127197,127212,127713,,,
stimulus,canvas.Screen,0_5_10_1,2022-07-15T14:25:01.496Z,,,,,,6,587.9999999999854,response,,0.515,0.545,,,https://raw.githubusercontent.com/carero2/loss-perception/main/png/0.515blue1yellowb%3D1w%3D100v%3D100.png,https://raw.githubusercontent.com/carero2/loss-perception/main/png/0.545blue1yellowb%3D1w%3D100v%3D100.png,,,,,,,,,true,j,keypress(j),0.545,0.515,true,128304,128283.99999999999,127696,127697,127713,128346,,,
choice,canvas.Screen,0_5_10_2,2022-07-15T14:25:03.522Z,,,,0.545,,6,2000,timeout,,,0.545,,0.515,,,9,,,,,,,51,,,,,0.515,true,130330.00000000001,130329,128330,128306.00000000001,128346,130346,,151,
timeout,canvas.Screen,0_5_10_3,2022-07-15T14:25:03.523Z,,,,,,6,NaN,skipped,,,0.545,,,,,,,,,,,,,,,,,0.515,true,130330.99999999999,130329,,130330.99999999999,,130346,,,
ITI,canvas.Screen,0_5_10_4,2022-07-15T14:25:04.022Z,,,,,,6,500,timeout,,,0.545,,,,,,,,,,,,,,,,,0.515,true,130830.00000000001,130829,130329,130332,130346,130846,,,
trial,flow.Sequence,0_5_10,2022-07-15T14:25:04.022Z,,,,,,6,3617,completion,,,0.545,,,,,,,,,,,,,,,,,0.515,true,130830.00000000001,130829,127196,127197,127212,130846,,,
fixation,canvas.Screen,0_5_11_0,2022-07-15T14:25:04.522Z,,,,,,18,500,timeout,,,0.545,,,,,,,,,,,,,,,,,0.455,false,131330,131329,130829,130830.99999999999,130846,131346,,,
stimulus,canvas.Screen,0_5_11_1,2022-07-15T14:25:05.039Z,,,,,,18,498,response,,0.545,0.545,,,https://raw.githubusercontent.com/carero2/loss-perception/main/png/0.545blue1yellowb%3D1w%3D100v%3D85.png,https://raw.githubusercontent.com/carero2/loss-perception/main/png/0.455blue1yellowb%3D1w%3D100v%3D85.png,,,,,,,,,true,f,keypress(f),0.455,0.455,false,131847,131827,131329,131330,131346,131879,,,
choice,canvas.Screen,0_5_11_2,2022-07-15T14:25:07.055Z,,,,0.545,,18,2000,timeout,,,0.545,,0.455,,,9,,,,,,,60,,,,,0.455,false,133863,133863,131863,131849,131879,133879,,160,
timeout,canvas.Screen,0_5_11_3,2022-07-15T14:25:07.057Z,,,,,,18,NaN,skipped,,,0.545,,,,,,,,,,,,,,,,,0.455,false,133865,133863,,133865,,133879,,,
ITI,canvas.Screen,0_5_11_4,2022-07-15T14:25:07.555Z,,,,,,18,500,timeout,,,0.545,,,,,,,,,,,,,,,,,0.455,false,134363,134363,133863,133866,133879,134379,,,
trial,flow.Sequence,0_5_11,2022-07-15T14:25:07.555Z,,,,,,18,3517,completion,,,0.545,,,,,,,,,,,,,,,,,0.455,false,134364,134363,130829,130830.99999999999,130846,134379,,,
fixation,canvas.Screen,0_5_12_0,2022-07-15T14:25:08.055Z,,,,,,18,501,timeout,,,0.545,,,,,,,,,,,,,,,,,0.455,false,134863,134863,134363,134364,134379,134880,,,
stimulus,canvas.Screen,0_5_12_1,2022-07-15T14:25:08.635Z,,,,,,18,560,response,,0.545,0.545,,,https://raw.githubusercontent.com/carero2/loss-perception/main/png/0.545blue1yellowb%3D1w%3D100v%3D8.png,https://raw.githubusercontent.com/carero2/loss-perception/main/png/0.455blue1yellowb%3D1w%3D100v%3D8.png,,,,,,,,,true,f,keypress(f),0.455,0.455,false,135444.00000000003,135423,134863,134863,134880,135479,,,
choice,canvas.Screen,0_5_12_2,2022-07-15T14:25:10.655Z,,,,0.545,,18,2000,timeout,,,0.545,,0.455,,,9,,,,,,,69,,,,,0.455,false,137464,137463,135463,135447,135479,137479,,169,
timeout,canvas.Screen,0_5_12_3,2022-07-15T14:25:10.657Z,,,,,,18,NaN,skipped,,,0.545,,,,,,,,,,,,,,,,,0.455,false,137465,137463,,137465,,137479,,,
ITI,canvas.Screen,0_5_12_4,2022-07-15T14:25:11.155Z,,,,,,18,500,timeout,,,0.545,,,,,,,,,,,,,,,,,0.455,false,137964,137963,137463,137465,137479,137979,,,
trial,flow.Sequence,0_5_12,2022-07-15T14:25:11.156Z,,,,,,18,3584,completion,,,0.545,,,,,,,,,,,,,,,,,0.455,false,137964,137963,134363,134364,134379,137979,,,
fixation,canvas.Screen,0_5_13_0,2022-07-15T14:25:11.655Z,,,,,,6,500,timeout,,,0.545,,,,,,,,,,,,,,,,,0.515,false,138464,138463,137963,137964,137979,138479,,,
stimulus,canvas.Screen,0_5_13_1,2022-07-15T14:25:12.294Z,,,,,,6,617,response,,0.545,0.545,,,https://raw.githubusercontent.com/carero2/loss-perception/main/png/0.545blue1yellowb%3D1w%3D100v%3D33.png,https://raw.githubusercontent.com/carero2/loss-perception/main/png/0.515blue1yellowb%3D1w%3D100v%3D33.png,,,,,,,,,true,f,keypress(f),0.515,0.515,false,139102,139080,138463,138464,138479,139146,,,
choice,canvas.Screen,0_5_13_2,2022-07-15T14:25:14.322Z,,,,0.545,,6,2000,timeout,,,0.545,,0.515,,,9,,,,,,,78,,,,,0.515,false,141130,141129,139130,139104,139146,141146,,178,
timeout,canvas.Screen,0_5_13_3,2022-07-15T14:25:14.326Z,,,,,,6,NaN,skipped,,,0.545,,,,,,,,,,,,,,,,,0.515,false,141134,141129,,141134,,141146,,,
ITI,canvas.Screen,0_5_13_4,2022-07-15T14:25:14.821Z,,,,,,6,500,timeout,,,0.545,,,,,,,,,,,,,,,,,0.515,false,141630,141629,141129,141134,141146,141646,,,
trial,flow.Sequence,0_5_13,2022-07-15T14:25:14.822Z,,,,,,6,3650,completion,,,0.545,,,,,,,,,,,,,,,,,0.515,false,141630,141629,137963,137964,137979,141646,,,
fixation,canvas.Screen,0_5_14_0,2022-07-15T14:25:15.322Z,,,,,,6,500,timeout,,,0.515,,,,,,,,,,,,,,,,,0.485,true,142130,142129,141629,141630,141646,142146,,,
stimulus,canvas.Screen,0_5_14_1,2022-07-15T14:25:15.834Z,,,,,,6,493,response,,0.485,0.515,,,https://raw.githubusercontent.com/carero2/loss-perception/main/png/0.485blue1yellowb%3D1w%3D100v%3D29.png,https://raw.githubusercontent.com/carero2/loss-perception/main/png/0.515blue1yellowb%3D1w%3D100v%3D29.png,,,,,,,,,true,j,keypress(j),0.515,0.485,true,142642,142622,142129,142130,142146,142679,,,
choice,canvas.Screen,0_5_14_2,2022-07-15T14:25:17.854Z,,,,0.515,,6,2000,timeout,,,0.515,,0.485,,,3,,,,,,,81,,,,,0.485,true,144663,144662,142663,142645,142679,144679,,181,
timeout,canvas.Screen,0_5_14_3,2022-07-15T14:25:17.856Z,,,,,,6,NaN,skipped,,,0.515,,,,,,,,,,,,,,,,,0.485,true,144664.00000000003,144662,,144664.00000000003,,144679,,,
ITI,canvas.Screen,0_5_14_4,2022-07-15T14:25:18.355Z,,,,,,6,500,timeout,,,0.515,,,,,,,,,,,,,,,,,0.485,true,145163,145163,144662,144665,144679,145179,,,
trial,flow.Sequence,0_5_14,2022-07-15T14:25:18.355Z,,,,,,6,3517,completion,,,0.515,,,,,,,,,,,,,,,,,0.485,true,145164.00000000003,145163,141629,141630,141646,145179,,,
fixation,canvas.Screen,0_5_15_0,2022-07-15T14:25:18.855Z,,,,,,9,500,timeout,,,0.485,,,,,,,,,,,,,,,,,0.53,false,145663,145663,145163,145164.00000000003,145179,145679,,,
stimulus,canvas.Screen,0_5_15_1,2022-07-15T14:25:19.538Z,,,,,,9,664,response,,0.485,0.485,,,https://raw.githubusercontent.com/carero2/loss-perception/main/png/0.485blue1yellowb%3D1w%3D100v%3D84.png,https://raw.githubusercontent.com/carero2/loss-perception/main/png/0.53blue1yellowb%3D1w%3D100v%3D84.png,,,,,,,,,true,j,keypress(j),0.53,0.53,false,146347,146327,145663,145664.00000000003,145679,146379,,,
choice,canvas.Screen,0_5_15_2,2022-07-15T14:25:21.555Z,,,,0.53,,9,2000,timeout,,,0.485,,0.485,,,6,,,,,,,87,,,,,0.53,false,148363,148363,146363,146349,146379,148379,,187,
timeout,canvas.Screen,0_5_15_3,2022-07-15T14:25:21.559Z,,,,,,9,NaN,skipped,,,0.485,,,,,,,,,,,,,,,,,0.53,false,148367,148363,,148367,,148379,,,
ITI,canvas.Screen,0_5_15_4,2022-07-15T14:25:22.055Z,,,,,,9,500,timeout,,,0.485,,,,,,,,,,,,,,,,,0.53,false,148864,148863,148363,148367,148379,148879,,,
trial,flow.Sequence,0_5_15,2022-07-15T14:25:22.055Z,,,,,,9,3684,completion,,,0.485,,,,,,,,,,,,,,,,,0.53,false,148864,148863,145163,145164.00000000003,145179,148879,,,
fixation,canvas.Screen,0_5_16_0,2022-07-15T14:25:22.557Z,,,,,,6,502,timeout,,,0.485,,,,,,,,,,,,,,,,,0.455,true,149366,149363,148863,148864,148879,149381,,,
stimulus,canvas.Screen,0_5_16_1,2022-07-15T14:25:23.218Z,,,,,,6,644,response,,0.455,0.485,,,https://raw.githubusercontent.com/carero2/loss-perception/main/png/0.455blue1yellowb%3D1w%3D100v%3D30.png,https://raw.githubusercontent.com/carero2/loss-perception/main/png/0.485blue1yellowb%3D1w%3D100v%3D30.png,,,,,,,,,true,j,keypress(j),0.485,0.455,true,150027.00000000003,150007,149363,149366,149381,150063,,,
choice,canvas.Screen,0_5_16_2,2022-07-15T14:25:25.238Z,,,,0.485,,6,2000,timeout,,,0.485,,0.455,,,-3,,,,,,,84,,,,,0.455,true,152047,152046,150046,150030,150063,152063,,184,
timeout,canvas.Screen,0_5_16_3,2022-07-15T14:25:25.240Z,,,,,,6,NaN,skipped,,,0.485,,,,,,,,,,,,,,,,,0.455,true,152049,152046,,152048,,152063,,,
ITI,canvas.Screen,0_5_16_4,2022-07-15T14:25:25.738Z,,,,,,6,500,timeout,,,0.485,,,,,,,,,,,,,,,,,0.455,true,152547,152546,152046,152049,152063,152563,,,
trial,flow.Sequence,0_5_16,2022-07-15T14:25:25.739Z,,,,,,6,3667,completion,,,0.485,,,,,,,,,,,,,,,,,0.455,true,152547,152546,148863,148864,148879,152563,,,
fixation,canvas.Screen,0_5_17_0,2022-07-15T14:25:26.238Z,,,,,,12,500,timeout,,,0.53,,,,,,,,,,,,,,,,,0.47,true,153047,153046,152546,152547,152563,153063,,,
stimulus,canvas.Screen,0_5_17_1,2022-07-15T14:25:26.885Z,,,,,,12,628,response,,0.47,0.53,,,https://raw.githubusercontent.com/carero2/loss-perception/main/png/0.47blue1yellowb%3D1w%3D100v%3D6.png,https://raw.githubusercontent.com/carero2/loss-perception/main/png/0.53blue1yellowb%3D1w%3D100v%3D6.png,,,,,,,,,true,j,keypress(j),0.53,0.47,true,153693,153674,153046,153047,153063,153729,,,
choice,canvas.Screen,0_5_17_2,2022-07-15T14:25:28.905Z,,,,0.53,,12,2000,timeout,,,0.53,,0.47,,,6,,,,,,,90,,,,,0.47,true,155714,155713,153712,153696,153729,155729,,190,
timeout,canvas.Screen,0_5_17_3,2022-07-15T14:25:28.907Z,,,,,,12,NaN,skipped,,,0.53,,,,,,,,,,,,,,,,,0.47,true,155716,155713,,155715,,155729,,,
ITI,canvas.Screen,0_5_17_4,2022-07-15T14:25:29.405Z,,,,,,12,500,timeout,,,0.53,,,,,,,,,,,,,,,,,0.47,true,156213,156213,155713,155716,155729,156229,,,
trial,flow.Sequence,0_5_17,2022-07-15T14:25:29.405Z,,,,,,12,3650,completion,,,0.53,,,,,,,,,,,,,,,,,0.47,true,156214,156213,152546,152547,152563,156229,,,
fixation,canvas.Screen,0_5_18_0,2022-07-15T14:25:29.905Z,,,,,,6,501,timeout,,,0.485,,,,,,,,,,,,,,,,,0.455,true,156714,156713,156213,156214,156229,156730,,,
stimulus,canvas.Screen,0_5_18_1,2022-07-15T14:25:30.619Z,,,,,,6,693,response,,0.455,0.485,,,https://raw.githubusercontent.com/carero2/loss-perception/main/png/0.455blue1yellowb%3D1w%3D100v%3D76.png,https://raw.githubusercontent.com/carero2/loss-perception/main/png/0.485blue1yellowb%3D1w%3D100v%3D76.png,,,,,,,,,true,j,keypress(j),0.485,0.455,true,157427,157406,156713,156714,156730,157463,,,
choice,canvas.Screen,0_5_18_2,2022-07-15T14:25:32.638Z,,,,0.485,,6,1999,timeout,,,0.485,,0.455,,,-3,,,,,,,87,,,,,0.455,true,159447,159446,157446,157430,157463,159462,,187,
timeout,canvas.Screen,0_5_18_3,2022-07-15T14:25:32.640Z,,,,,,6,NaN,skipped,,,0.485,,,,,,,,,,,,,,,,,0.455,true,159448,159446,,159448,,159462,,,
ITI,canvas.Screen,0_5_18_4,2022-07-15T14:25:33.138Z,,,,,,6,501,timeout,,,0.485,,,,,,,,,,,,,,,,,0.455,true,159947,159946,159446,159449,159462,159963,,,
trial,flow.Sequence,0_5_18,2022-07-15T14:25:33.139Z,,,,,,6,3717,completion,,,0.485,,,,,,,,,,,,,,,,,0.455,true,159947,159946,156213,156214,156229,159963,,,
fixation,canvas.Screen,0_5_19_0,2022-07-15T14:25:33.638Z,,,,,,12,500,timeout,,,0.53,,,,,,,,,,,,,,,,,0.47,true,160447,160446,159946,159948,159963,160463,,,
stimulus,canvas.Screen,0_5_19_1,2022-07-15T14:25:34.173Z,,,,,,12,516.0000000000291,response,,0.47,0.53,,,https://raw.githubusercontent.com/carero2/loss-perception/main/png/0.47blue1yellowb%3D1w%3D100v%3D78.png,https://raw.githubusercontent.com/carero2/loss-perception/main/png/0.53blue1yellowb%3D1w%3D100v%3D78.png,,,,,,,,,true,j,keypress(j),0.53,0.47,true,160982,160962.00000000003,160446,160447,160463,161013,,,
choice,canvas.Screen,0_5_19_2,2022-07-15T14:25:36.188Z,,,,0.53,,12,2000,timeout,,,0.53,,0.47,,,6,,,,,,,93,,,,,0.47,true,162997,162996,160996,160984,161013,163013,,193,
timeout,canvas.Screen,0_5_19_3,2022-07-15T14:25:36.190Z,,,,,,12,NaN,skipped,,,0.53,,,,,,,,,,,,,,,,,0.47,true,162998,162996,,162998,,163013,,,
ITI,canvas.Screen,0_5_19_4,2022-07-15T14:25:36.688Z,,,,,,12,500,timeout,,,0.53,,,,,,,,,,,,,,,,,0.47,true,163497,163496,162996,162999,163013,163513,,,
trial,flow.Sequence,0_5_19,2022-07-15T14:25:36.689Z,,,,,,12,3533,completion,,,0.53,,,,,,,,,,,,,,,,,0.47,true,163497,163496,159946,159947,159963,163513,,,
fixation,canvas.Screen,0_5_20_0,2022-07-15T14:25:37.188Z,,,,,,6,500,timeout,,,0.545,,,,,,,,,,,,,,,,,0.515,false,163997,163996,163496,163497,163513,164013,,,
stimulus,canvas.Screen,0_5_20_1,2022-07-15T14:25:37.757Z,,,,,,6,549.0000000000291,response,,0.545,0.545,,,https://raw.githubusercontent.com/carero2/loss-perception/main/png/0.545blue1yellowb%3D1w%3D100v%3D59.png,https://raw.githubusercontent.com/carero2/loss-perception/main/png/0.515blue1yellowb%3D1w%3D100v%3D59.png,,,,,,,,,true,f,keypress(f),0.515,0.515,false,164565,164545.00000000003,163996,164000,164013,164596,,,
choice,canvas.Screen,0_5_20_2,2022-07-15T14:25:39.772Z,,,,0.545,,6,2000,timeout,,,0.545,,0.515,,,9,,,,,,,102,,,,,0.515,false,166580,166580,164580,164568,164596,166596,,202,
timeout,canvas.Screen,0_5_20_3,2022-07-15T14:25:39.774Z,,,,,,6,NaN,skipped,,,0.545,,,,,,,,,,,,,,,,,0.515,false,166582,166580,,166582,,166596,,,
ITI,canvas.Screen,0_5_20_4,2022-07-15T14:25:40.272Z,,,,,,6,500,timeout,,,0.545,,,,,,,,,,,,,,,,,0.515,false,167080,167080,166580,166582,166596,167096,,,
trial,flow.Sequence,0_5_20,2022-07-15T14:25:40.272Z,,,,,,6,3567,completion,,,0.545,,,,,,,,,,,,,,,,,0.515,false,167080,167080,163496,163497,163513,167096,,,
fixation,canvas.Screen,0_5_21_0,2022-07-15T14:25:40.772Z,,,,,,9,500,timeout,,,0.485,,,,,,,,,,,,,,,,,0.53,true,167580,167580,167080,167081.00000000003,167096,167596,,,
stimulus,canvas.Screen,0_5_21_1,2022-07-15T14:25:41.268Z,,,,,,9,477.0000000000291,response,,0.53,0.485,,,https://raw.githubusercontent.com/carero2/loss-perception/main/png/0.53blue1yellowb%3D1w%3D100v%3D64.png,https://raw.githubusercontent.com/carero2/loss-perception/main/png/0.485blue1yellowb%3D1w%3D100v%3D64.png,,,,,,,,,true,f,keypress(f),0.485,0.53,true,168077,168057.00000000003,167580,167580,167596,168113,,,
choice,canvas.Screen,0_5_21_2,2022-07-15T14:25:43.288Z,,,,0.53,,9,2000,timeout,,,0.485,,0.485,,,6,,,,,,,108,,,,,0.53,true,170097,170096,168096,168079,168113,170113,,208,
timeout,canvas.Screen,0_5_21_3,2022-07-15T14:25:43.290Z,,,,,,9,NaN,skipped,,,0.485,,,,,,,,,,,,,,,,,0.53,true,170099,170096,,170099,,170113,,,
ITI,canvas.Screen,0_5_21_4,2022-07-15T14:25:43.790Z,,,,,,9,500,timeout,,,0.485,,,,,,,,,,,,,,,,,0.53,true,170599,170596,170096,170099,170113,170613,,,
trial,flow.Sequence,0_5_21,2022-07-15T14:25:43.791Z,,,,,,9,3500,completion,,,0.485,,,,,,,,,,,,,,,,,0.53,true,170599,170596,167080,167081.00000000003,167096,170613,,,
fixation,canvas.Screen,0_5_22_0,2022-07-15T14:25:44.289Z,,,,,,6,500,timeout,,,0.515,,,,,,,,,,,,,,,,,0.485,true,171097,171096,170596,170599,170613,171113,,,
stimulus,canvas.Screen,0_5_22_1,2022-07-15T14:25:44.964Z,,,,,,6,656,response,,0.485,0.515,,,https://raw.githubusercontent.com/carero2/loss-perception/main/png/0.485blue1yellowb%3D1w%3D100v%3D53.png,https://raw.githubusercontent.com/carero2/loss-perception/main/png/0.515blue1yellowb%3D1w%3D100v%3D53.png,,,,,,,,,true,j,keypress(j),0.515,0.485,true,171772,171752,171096,171098,171113,171813,,,
choice,canvas.Screen,0_5_22_2,2022-07-15T14:25:46.989Z,,,,0.515,,6,2000,timeout,,,0.515,,0.485,,,3,,,,,,,111,,,,,0.485,true,173797,173796,171796,171775,171813,173813,,211,
timeout,canvas.Screen,0_5_22_3,2022-07-15T14:25:46.990Z,,,,,,6,NaN,skipped,,,0.515,,,,,,,,,,,,,,,,,0.485,true,173799,173796,,173799,,173813,,,
ITI,canvas.Screen,0_5_22_4,2022-07-15T14:25:47.489Z,,,,,,6,499,timeout,,,0.515,,,,,,,,,,,,,,,,,0.485,true,174297,174296,173796,173799,173813,174312,,,
trial,flow.Sequence,0_5_22,2022-07-15T14:25:47.489Z,,,,,,6,3683,completion,,,0.515,,,,,,,,,,,,,,,,,0.485,true,174298,174296,170596,170599,170613,174312,,,
fixation,canvas.Screen,0_5_23_0,2022-07-15T14:25:47.987Z,,,,,,18,501,timeout,,,0.545,,,,,,,,,,,,,,,,,0.455,false,174796,174795,174296,174298,174312,174813,,,
stimulus,canvas.Screen,0_5_23_1,2022-07-15T14:25:48.425Z,,,,,,18,419,response,,0.545,0.545,,,https://raw.githubusercontent.com/carero2/loss-perception/main/png/0.545blue1yellowb%3D1w%3D100v%3D40.png,https://raw.githubusercontent.com/carero2/loss-perception/main/png/0.455blue1yellowb%3D1w%3D100v%3D40.png,,,,,,,,,true,f,keypress(f),0.455,0.455,false,175234,175214,174795,174796,174813,175263,,,
choice,canvas.Screen,0_5_23_2,2022-07-15T14:25:50.440Z,,,,0.545,,18,2000,timeout,,,0.545,,0.455,,,9,,,,,,,120,,,,,0.455,false,177249,177246,175245,175236,175263,177263,,220,
timeout,canvas.Screen,0_5_23_3,2022-07-15T14:25:50.442Z,,,,,,18,NaN,skipped,,,0.545,,,,,,,,,,,,,,,,,0.455,false,177250,177246,,177250,,177263,,,
ITI,canvas.Screen,0_5_23_4,2022-07-15T14:25:50.939Z,,,,,,18,500,timeout,,,0.545,,,,,,,,,,,,,,,,,0.455,false,177747,177746,177246,177250,177263,177763,,,
trial,flow.Sequence,0_5_23,2022-07-15T14:25:50.939Z,,,,,,18,3434,completion,,,0.545,,,,,,,,,,,,,,,,,0.455,false,177748,177746,174296,174298,174312,177763,,,
pratice,flow.Loop,0_5,2022-07-15T14:25:50.939Z,,,,,,,88700,completion,,,,,,,,,,,,,,,,,,,,,,177748,177746,89029,89016,89046,177763,,,
show amount,html.Screen,0_6,2022-07-15T14:26:02.394Z,,,,,,,11437,response,,,,,,,,,,,,,,,,,Continue,click #Continue,,,,189203,189183,177746,177750,177763,189230,,,
first block,canvas.Screen,0_7,2022-07-15T14:26:05.594Z,,,,,,,3169,response,,,,,,,,,,,,,,,,,space,keypress(Space),,,,192403,192382,189213,189203,189230,192429,,,
fixation,canvas.Screen,0_8_0_0,2022-07-15T14:26:06.105Z,,,,,,4,700,timeout,,,0.51,,,,,,,,,,,,,,,,,0.49,true,192914.00000000003,192913,192413,192403,192429,193129,,,
stimulus,canvas.Screen,0_8_0_1,2022-07-15T14:26:07.337Z,,,,,,4,1213,response,,0.49,0.51,,,https://raw.githubusercontent.com/carero2/loss-perception/main/png/0.49blue1yellowb%3D1w%3D100v%3D94.png,https://raw.githubusercontent.com/carero2/loss-perception/main/png/0.51blue1yellowb%3D1w%3D100v%3D94.png,,,,,,,,,true,j,keypress(j),0.51,0.49,true,194146.00000000003,194126,192913,193125,193129,194179,,,
choice,canvas.Screen,0_8_0_2,2022-07-15T14:26:08.357Z,,,,0.51,,4,1001,timeout,,,0.51,,0.49,,,2,2,,,,,,,,,,,0.49,true,195166,195163,194163,194149,194179,195180,102,,
ITI,canvas.Screen,0_8_0_3,2022-07-15T14:26:08.855Z,,,2823,,,4,500,timeout,,,0.51,,,,,,,,,,,,,,,,,0.49,true,195664.00000000003,195663,195163,195166,195180,195680,,,
trial,flow.Sequence,0_8_0,2022-07-15T14:26:08.856Z,,,,,,4,3234,completion,,,0.51,,,,,,,,,,,,,,,,,0.49,true,195664.00000000003,195663,192413,192403,192429,195680,,,
fixation,canvas.Screen,0_8_1_0,2022-07-15T14:26:09.355Z,,,,,,6,716,timeout,,,0.485,,,,,,,,,,,,,,,,,0.455,false,196164.00000000003,196163,195663,195665,195680,196396,,,
stimulus,canvas.Screen,0_8_1_1,2022-07-15T14:26:10.245Z,,,,,,6,871,response,,0.485,0.485,,,https://raw.githubusercontent.com/carero2/loss-perception/main/png/0.485blue1yellowb%3D1w%3D100v%3D82.png,https://raw.githubusercontent.com/carero2/loss-perception/main/png/0.455blue1yellowb%3D1w%3D100v%3D82.png,,,,,,,,,true,f,keypress(f),0.455,0.455,false,197054,197034,196163,196387,196396,197096,,,
choice,canvas.Screen,0_8_1_2,2022-07-15T14:26:11.272Z,,,,0.485,,6,1000,timeout,,,0.485,,0.455,,,-3,-1,,,,,,,,,,,0.455,false,198080,198080,197079,197056,197096,198096,99,,
ITI,canvas.Screen,0_8_1_3,2022-07-15T14:26:11.772Z,,,2222,,,6,500,timeout,,,0.485,,,,,,,,,,,,,,,,,0.455,false,198580,198580,198080,198081.00000000003,198096,198596,,,
trial,flow.Sequence,0_8_1,2022-07-15T14:26:11.772Z,,,,,,6,2900,completion,,,0.485,,,,,,,,,,,,,,,,,0.455,false,198581.00000000003,198580,195663,195665,195680,198596,,,
fixation,canvas.Screen,0_8_2_0,2022-07-15T14:26:12.272Z,,,,,,4,717,timeout,,,0.49,,,,,,,,,,,,,,,,,0.47,false,199080,199080,198580,198581.00000000003,198596,199313,,,
stimulus,canvas.Screen,0_8_2_1,2022-07-15T14:26:13.329Z,,,,,,4,1036,response,,0.49,0.49,,,https://raw.githubusercontent.com/carero2/loss-perception/main/png/0.49blue1yellowb%3D1w%3D100v%3D99.png,https://raw.githubusercontent.com/carero2/loss-perception/main/png/0.47blue1yellowb%3D1w%3D100v%3D99.png,,,,,,,,,true,f,keypress(f),0.47,0.47,false,200137,200116,199080,199304,199313,200180,,,
choice,canvas.Screen,0_8_2_2,2022-07-15T14:26:14.354Z,,,,0.49,,4,1000,timeout,,,0.49,,0.47,,,-2,-3,,,,,,,,,,,0.47,false,201163,201162,200163,200139,200180,201180,97,,
ITI,canvas.Screen,0_8_2_3,2022-07-15T14:26:14.855Z,,,2635,,,4,500,timeout,,,0.49,,,,,,,,,,,,,,,,,0.47,false,201664.00000000003,201663,201162,201163,201180,201680,,,
trial,flow.Sequence,0_8_2,2022-07-15T14:26:14.856Z,,,,,,4,3067,completion,,,0.49,,,,,,,,,,,,,,,,,0.47,false,201664.00000000003,201663,198580,198581.00000000003,198596,201680,,,
fixation,canvas.Screen,0_8_3_0,2022-07-15T14:26:15.355Z,,,,,,2,700,timeout,,,0.515,,,,,,,,,,,,,,,,,0.505,false,202164.00000000003,202163,201663,201665,201680,202380,,,
stimulus,canvas.Screen,0_8_3_1,2022-07-15T14:26:16.681Z,,,,,,2,1307,response,,0.515,0.515,,,https://raw.githubusercontent.com/carero2/loss-perception/main/png/0.515blue1yellowb%3D1w%3D100v%3D83.png,https://raw.githubusercontent.com/carero2/loss-perception/main/png/0.505blue1yellowb%3D1w%3D100v%3D83.png,,,,,,,,,true,f,keypress(f),0.505,0.505,false,203490,203470,202163,202375,202380,203530,,,
choice,canvas.Screen,0_8_3_2,2022-07-15T14:26:17.704Z,,,,0.515,,2,1000,timeout,,,0.515,,0.505,,,3,0,,,,,,,,,,,0.505,false,204513,204512,203513,203492,203530,204530,100,,
ITI,canvas.Screen,0_8_3_3,2022-07-15T14:26:18.207Z,,,2581,,,2,500,timeout,,,0.515,,,,,,,,,,,,,,,,,0.505,false,205015.00000000003,205013,204512,204513,204530,205030,,,
trial,flow.Sequence,0_8_3,2022-07-15T14:26:18.207Z,,,,,,2,3333,completion,,,0.515,,,,,,,,,,,,,,,,,0.505,false,205015.00000000003,205013,201663,201665,201680,205030,,,
fixation,canvas.Screen,0_8_4_0,2022-07-15T14:26:18.705Z,,,,,,6,700,timeout,,,0.515,,,,,,,,,,,,,,,,,0.485,false,205514,205513,205013,205016,205030,205730,,,
stimulus,canvas.Screen,0_8_4_1,2022-07-15T14:26:19.953Z,,,,,,6,1229,response,,0.515,0.515,,,https://raw.githubusercontent.com/carero2/loss-perception/main/png/0.515blue1yellowb%3D1w%3D100v%3D95.png,https://raw.githubusercontent.com/carero2/loss-perception/main/png/0.485blue1yellowb%3D1w%3D100v%3D95.png,,,,,,,,,true,f,keypress(f),0.485,0.485,false,206762,206742,205513,205725,205730,206796,,,
choice,canvas.Screen,0_8_4_2,2022-07-15T14:26:20.972Z,,,,0.515,,6,1000,timeout,,,0.515,,0.485,,,3,3,,,,,,,,,,,0.485,false,207781,207780,206780,206764,206796,207796,103,,
ITI,canvas.Screen,0_8_4_3,2022-07-15T14:26:21.472Z,,,2570,,,6,500,timeout,,,0.515,,,,,,,,,,,,,,,,,0.485,false,208280,208280,207780,207781,207796,208296,,,
trial,flow.Sequence,0_8_4,2022-07-15T14:26:21.472Z,,,,,,6,3250,completion,,,0.515,,,,,,,,,,,,,,,,,0.485,false,208281,208280,205013,205015.00000000003,205030,208296,,,
fixation,canvas.Screen,0_8_5_0,2022-07-15T14:26:21.972Z,,,,,,4,717,timeout,,,0.53,,,,,,,,,,,,,,,,,0.51,false,208780,208780,208280,208281,208296,209013,,,
stimulus,canvas.Screen,0_8_5_1,2022-07-15T14:26:23.328Z,,,,,,4,1337,response,,0.53,0.53,,,https://raw.githubusercontent.com/carero2/loss-perception/main/png/0.53blue1yellowb%3D1w%3D100v%3D35.png,https://raw.githubusercontent.com/carero2/loss-perception/main/png/0.51blue1yellowb%3D1w%3D100v%3D35.png,,,,,,,,,true,f,keypress(f),0.51,0.51,false,210136,210117,208780,208996,209013,210180,,,
choice,canvas.Screen,0_8_5_2,2022-07-15T14:26:24.355Z,,,,0.53,,4,1000,timeout,,,0.53,,0.51,,,6,9,,,,,,,,,,,0.51,false,211164.00000000003,211163,210163,210139,210180,211180,109,,
ITI,canvas.Screen,0_8_5_3,2022-07-15T14:26:24.858Z,,,2582,,,4,499,timeout,,,0.53,,,,,,,,,,,,,,,,,0.51,false,211666,211663,211163,211164.00000000003,211180,211679,,,
trial,flow.Sequence,0_8_5,2022-07-15T14:26:24.858Z,,,,,,4,3367,completion,,,0.53,,,,,,,,,,,,,,,,,0.51,false,211667,211663,208280,208281,208296,211679,,,
fixation,canvas.Screen,0_8_6_0,2022-07-15T14:26:25.354Z,,,,,,2,701,timeout,,,0.505,,,,,,,,,,,,,,,,,0.495,true,212163,212162,211663,211667,211679,212380,,,
stimulus,canvas.Screen,0_8_6_1,2022-07-15T14:26:26.447Z,,,,,,2,1073,response,,0.495,0.505,,,https://raw.githubusercontent.com/carero2/loss-perception/main/png/0.495blue1yellowb%3D1w%3D100v%3D38.png,https://raw.githubusercontent.com/carero2/loss-perception/main/png/0.505blue1yellowb%3D1w%3D100v%3D38.png,,,,,,,,,true,j,keypress(j),0.505,0.495,true,213255,213235,212162,212364,212380,213296,,,
choice,canvas.Screen,0_8_6_2,2022-07-15T14:26:27.472Z,,,,0.505,,2,1000,timeout,,,0.505,,0.495,,,1,10,,,,,,,,,,,0.495,true,214280,214280,213280,213257,213296,214296,110,,
ITI,canvas.Screen,0_8_6_3,2022-07-15T14:26:27.972Z,,,2412,,,2,500,timeout,,,0.505,,,,,,,,,,,,,,,,,0.495,true,214780,214780,214280,214281,214296,214796,,,
trial,flow.Sequence,0_8_6,2022-07-15T14:26:27.972Z,,,,,,2,3101,completion,,,0.505,,,,,,,,,,,,,,,,,0.495,true,214781,214780,211663,211667,211679,214796,,,
fixation,canvas.Screen,0_8_7_0,2022-07-15T14:26:28.471Z,,,,,,6,634,timeout,,,0.545,,,,,,,,,,,,,,,,,0.515,false,215280,215279,214780,214781,214796,215430,,,
stimulus,canvas.Screen,0_8_7_1,2022-07-15T14:26:29.598Z,,,,,,6,1108,response,,0.545,0.545,,,https://raw.githubusercontent.com/carero2/loss-perception/main/png/0.545blue1yellowb%3D1w%3D100v%3D92.png,https://raw.githubusercontent.com/carero2/loss-perception/main/png/0.515blue1yellowb%3D1w%3D100v%3D92.png,,,,,,,,,true,f,keypress(f),0.515,0.515,false,216406,216387,215279,215426.00000000003,215430,216446,,,
choice,canvas.Screen,0_8_7_2,2022-07-15T14:26:30.622Z,,,,0.545,,6,1000,timeout,,,0.545,,0.515,,,9,19,,,,,,,,,,,0.515,false,217431,217430,216430,216409,216446,217446,119,,
ITI,canvas.Screen,0_8_7_3,2022-07-15T14:26:31.122Z,,,2129,,,6,500,timeout,,,0.545,,,,,,,,,,,,,,,,,0.515,false,217930,217930,217430,217431,217446,217946,,,
trial,flow.Sequence,0_8_7,2022-07-15T14:26:31.123Z,,,,,,6,3134,completion,,,0.545,,,,,,,,,,,,,,,,,0.515,false,217931,217930,214780,214781,214796,217946,,,
fixation,canvas.Screen,0_8_8_0,2022-07-15T14:26:31.622Z,,,,,,2,717,timeout,,,0.495,,,,,,,,,,,,,,,,,0.485,true,218430,218430,217930,217932.00000000003,217946,218663,,,
stimulus,canvas.Screen,0_8_8_1,2022-07-15T14:26:32.656Z,,,,,,2,1015,response,,0.485,0.495,,,https://raw.githubusercontent.com/carero2/loss-perception/main/png/0.485blue1yellowb%3D1w%3D100v%3D99.png,https://raw.githubusercontent.com/carero2/loss-perception/main/png/0.495blue1yellowb%3D1w%3D100v%3D99.png,,,,,,,,,true,j,keypress(j),0.495,0.485,true,219465,219445,218430,218653,218663,219496,,,
choice,canvas.Screen,0_8_8_2,2022-07-15T14:26:33.672Z,,,,0.495,,2,1000,timeout,,,0.495,,0.485,,,-1,18,,,,,,,,,,,0.485,true,220480.00000000003,220480,219480,219468.00000000003,219496,220496,118,,
ITI,canvas.Screen,0_8_8_3,2022-07-15T14:26:34.172Z,,,2117,,,2,500,timeout,,,0.495,,,,,,,,,,,,,,,,,0.485,true,220980.00000000003,220980,220480,220481,220496,220996,,,
trial,flow.Sequence,0_8_8,2022-07-15T14:26:34.172Z,,,,,,2,3034,completion,,,0.495,,,,,,,,,,,,,,,,,0.485,true,220981,220980,217930,217931,217946,220996,,,
fixation,canvas.Screen,0_8_9_0,2022-07-15T14:26:34.672Z,,,,,,6,700,timeout,,,0.485,,,,,,,,,,,,,,,,,0.455,true,221481,221480,220980,220981,220996,221696,,,
stimulus,canvas.Screen,0_8_9_1,2022-07-15T14:26:35.452Z,,,,,,6,761,response,,0.455,0.485,,,https://raw.githubusercontent.com/carero2/loss-perception/main/png/0.455blue1yellowb%3D1w%3D100v%3D80.png,https://raw.githubusercontent.com/carero2/loss-perception/main/png/0.485blue1yellowb%3D1w%3D100v%3D80.png,,,,,,,,,true,j,keypress(j),0.485,0.455,true,222261,222241,221480,221681,221696,222296,,,
choice,canvas.Screen,0_8_9_2,2022-07-15T14:26:36.472Z,,,,0.485,,6,1000,timeout,,,0.485,,0.455,,,-3,15,,,,,,,,,,,0.455,true,223280,223280,222280,222263,222296,223296,115,,
ITI,canvas.Screen,0_8_9_3,2022-07-15T14:26:36.972Z,,,2770,,,6,500,timeout,,,0.485,,,,,,,,,,,,,,,,,0.455,true,223780,223780,223280,223281,223296,223796,,,
trial,flow.Sequence,0_8_9,2022-07-15T14:26:36.972Z,,,,,,6,2784,completion,,,0.485,,,,,,,,,,,,,,,,,0.455,true,223781,223780,220980,220981,220996,223796,,,
fixation,canvas.Screen,0_8_10_0,2022-07-15T14:26:37.472Z,,,,,,2,700,timeout,,,0.495,,,,,,,,,,,,,,,,,0.485,true,224280,224280,223780,223781,223796,224496,,,
stimulus,canvas.Screen,0_8_10_1,2022-07-15T14:26:38.433Z,,,,,,2,942,response,,0.485,0.495,,,https://raw.githubusercontent.com/carero2/loss-perception/main/png/0.485blue1yellowb%3D1w%3D100v%3D100.png,https://raw.githubusercontent.com/carero2/loss-perception/main/png/0.495blue1yellowb%3D1w%3D100v%3D100.png,,,,,,,,,true,j,keypress(j),0.495,0.485,true,225241,225222,224280,224485,224496,225280,,,
choice,canvas.Screen,0_8_10_2,2022-07-15T14:26:39.455Z,,,,0.495,,2,1000,timeout,,,0.495,,0.485,,,-1,14,,,,,,,,,,,0.485,true,226264,226263,225263,225243,225280,226280,114,,
ITI,canvas.Screen,0_8_10_3,2022-07-15T14:26:39.957Z,,,2487,,,2,500,timeout,,,0.495,,,,,,,,,,,,,,,,,0.485,true,226766,226763,226263,226264,226280,226780,,,
trial,flow.Sequence,0_8_10,2022-07-15T14:26:39.957Z,,,,,,2,2967,completion,,,0.495,,,,,,,,,,,,,,,,,0.485,true,226766,226763,223780,223781,223796,226780,,,
fixation,canvas.Screen,0_8_11_0,2022-07-15T14:26:40.455Z,,,,,,4,733,timeout,,,0.49,,,,,,,,,,,,,,,,,0.47,true,227264,227263,226763,226766,226780,227513,,,
stimulus,canvas.Screen,0_8_11_1,2022-07-15T14:26:41.931Z,,,,,,4,1457,response,,0.47,0.49,,,https://raw.githubusercontent.com/carero2/loss-perception/main/png/0.47blue1yellowb%3D1w%3D100v%3D82.png,https://raw.githubusercontent.com/carero2/loss-perception/main/png/0.49blue1yellowb%3D1w%3D100v%3D82.png,,,,,,,,,true,j,keypress(j),0.49,0.47,true,228740,228720,227263,227501,227513,228780,,,
choice,canvas.Screen,0_8_11_2,2022-07-15T14:26:42.955Z,,,,0.49,,4,1000,timeout,,,0.49,,0.47,,,-2,12,,,,,,,,,,,0.47,true,229764,229763,228763,228742.00000000003,228780,229780,112,,
ITI,canvas.Screen,0_8_11_3,2022-07-15T14:26:43.455Z,,,2196,,,4,500,timeout,,,0.49,,,,,,,,,,,,,,,,,0.47,true,230263,230263,229763,229764,229780,230280,,,
trial,flow.Sequence,0_8_11,2022-07-15T14:26:43.455Z,,,,,,4,3483,completion,,,0.49,,,,,,,,,,,,,,,,,0.47,true,230264,230263,226763,226766,226780,230280,,,
fixation,canvas.Screen,0_8_12_0,2022-07-15T14:26:43.955Z,,,,,,4,700,timeout,,,0.51,,,,,,,,,,,,,,,,,0.49,true,230764,230763,230263,230264,230280,230980,,,
stimulus,canvas.Screen,0_8_12_1,2022-07-15T14:26:45.071Z,,,,,,4,1097,response,,0.49,0.51,,,https://raw.githubusercontent.com/carero2/loss-perception/main/png/0.49blue1yellowb%3D1w%3D100v%3D96.png,https://raw.githubusercontent.com/carero2/loss-perception/main/png/0.51blue1yellowb%3D1w%3D100v%3D96.png,,,,,,,,,true,j,keypress(j),0.51,0.49,true,231880,231860,230763,230963,230980,231913,,,
choice,canvas.Screen,0_8_12_2,2022-07-15T14:26:46.088Z,,,,0.51,,4,1000,timeout,,,0.51,,0.49,,,2,14,,,,,,,,,,,0.49,true,232896.00000000003,232896,231896,231883,231913,232913,114,,
ITI,canvas.Screen,0_8_12_3,2022-07-15T14:26:46.589Z,,,2280,,,4,500,timeout,,,0.51,,,,,,,,,,,,,,,,,0.49,true,233397,233397,232896,232897,232913,233413,,,
trial,flow.Sequence,0_8_12,2022-07-15T14:26:46.589Z,,,,,,4,3117,completion,,,0.51,,,,,,,,,,,,,,,,,0.49,true,233397,233397,230263,230264,230280,233413,,,
fixation,canvas.Screen,0_8_13_0,2022-07-15T14:26:47.088Z,,,,,,2,734,timeout,,,0.505,,,,,,,,,,,,,,,,,0.495,true,233897,233896,233397,233398,233413,234147,,,
stimulus,canvas.Screen,0_8_13_1,2022-07-15T14:26:48.272Z,,,,,,2,1163,response,,0.495,0.505,,,https://raw.githubusercontent.com/carero2/loss-perception/main/png/0.495blue1yellowb%3D1w%3D100v%3D15.png,https://raw.githubusercontent.com/carero2/loss-perception/main/png/0.505blue1yellowb%3D1w%3D100v%3D15.png,,,,,,,,,true,j,keypress(j),0.505,0.495,true,235080,235059,233896,234140.00000000003,234147,235113,,,
choice,canvas.Screen,0_8_13_2,2022-07-15T14:26:49.288Z,,,,0.505,,2,1000,timeout,,,0.505,,0.495,,,1,15,,,,,,,,,,,0.495,true,236097,236096,235097,235082,235113,236113,115,,
ITI,canvas.Screen,0_8_13_3,2022-07-15T14:26:49.789Z,,,2627,,,2,500,timeout,,,0.505,,,,,,,,,,,,,,,,,0.495,true,236597,236597,236096,236097,236113,236613,,,
trial,flow.Sequence,0_8_13,2022-07-15T14:26:49.789Z,,,,,,2,3184,completion,,,0.505,,,,,,,,,,,,,,,,,0.495,true,236598,236597,233397,233398,233413,236613,,,
fixation,canvas.Screen,0_8_14_0,2022-07-15T14:26:50.288Z,,,,,,2,717,timeout,,,0.515,,,,,,,,,,,,,,,,,0.505,true,237097,237096,236597,236598,236613,237330,,,
stimulus,canvas.Screen,0_8_14_1,2022-07-15T14:26:52.355Z,,,,,,2,2047,response,,0.505,0.515,,,https://raw.githubusercontent.com/carero2/loss-perception/main/png/0.505blue1yellowb%3D1w%3D100v%3D81.png,https://raw.githubusercontent.com/carero2/loss-perception/main/png/0.515blue1yellowb%3D1w%3D100v%3D81.png,,,,,,,,,true,j,keypress(j),0.515,0.505,true,239163,239143,237096,237326,237330,239196,,,
choice,canvas.Screen,0_8_14_2,2022-07-15T14:26:53.374Z,,,,0.515,,2,1001,timeout,,,0.515,,0.505,,,3,18,,,,,,,,,,,0.505,true,240182.00000000003,240180,239180,239166,239196,240197,118,,
ITI,canvas.Screen,0_8_14_3,2022-07-15T14:26:53.872Z,,,2935,,,2,499,timeout,,,0.515,,,,,,,,,,,,,,,,,0.505,true,240681,240680,240180,240182.00000000003,240197,240696,,,
trial,flow.Sequence,0_8_14,2022-07-15T14:26:53.873Z,,,,,,2,4067,completion,,,0.515,,,,,,,,,,,,,,,,,0.505,true,240681,240680,236597,236598,236613,240696,,,
fixation,canvas.Screen,0_8_15_0,2022-07-15T14:26:54.372Z,,,,,,6,717,timeout,,,0.515,,,,,,,,,,,,,,,,,0.485,false,241181,241180,240680,240682.00000000003,240696,241413,,,
stimulus,canvas.Screen,0_8_15_1,2022-07-15T14:26:55.426Z,,,,,,6,1034,response,,0.515,0.515,,,https://raw.githubusercontent.com/carero2/loss-perception/main/png/0.515blue1yellowb%3D1w%3D100v%3D32.png,https://raw.githubusercontent.com/carero2/loss-perception/main/png/0.485blue1yellowb%3D1w%3D100v%3D32.png,,,,,,,,,true,f,keypress(f),0.485,0.485,false,242235,242214,241180,241403,241413,242280,,,
choice,canvas.Screen,0_8_15_2,2022-07-15T14:26:56.455Z,,,,0.515,,6,1000,timeout,,,0.515,,0.485,,,3,21,,,,,,,,,,,0.485,false,243264,243263,242263,242237,242280,243280,121,,
ITI,canvas.Screen,0_8_15_3,2022-07-15T14:26:56.955Z,,,2535,,,6,500,timeout,,,0.515,,,,,,,,,,,,,,,,,0.485,false,243764,243763,243263,243264,243280,243780,,,
trial,flow.Sequence,0_8_15,2022-07-15T14:26:56.956Z,,,,,,6,3067,completion,,,0.515,,,,,,,,,,,,,,,,,0.485,false,243764,243763,240680,240682.00000000003,240696,243780,,,
fixation,canvas.Screen,0_8_16_0,2022-07-15T14:26:57.455Z,,,,,,6,717,timeout,,,0.545,,,,,,,,,,,,,,,,,0.515,true,244264,244263,243763,243765.00000000003,243780,244497,,,
stimulus,canvas.Screen,0_8_16_1,2022-07-15T14:26:58.271Z,,,,,,6,796,response,,0.515,0.545,,,https://raw.githubusercontent.com/carero2/loss-perception/main/png/0.515blue1yellowb%3D1w%3D100v%3D32.png,https://raw.githubusercontent.com/carero2/loss-perception/main/png/0.545blue1yellowb%3D1w%3D100v%3D32.png,,,,,,,,,true,j,keypress(j),0.545,0.515,true,245080,245059,244263,244485,244497,245113,,,
choice,canvas.Screen,0_8_16_2,2022-07-15T14:26:59.289Z,,,,0.545,,6,1000,timeout,,,0.545,,0.515,,,9,30,,,,,,,,,,,0.515,true,246097,246097,245096,245082,245113,246113,130,,
ITI,canvas.Screen,0_8_16_3,2022-07-15T14:26:59.789Z,,,2234,,,6,500,timeout,,,0.545,,,,,,,,,,,,,,,,,0.515,true,246597,246597,246097,246098,246113,246613,,,
trial,flow.Sequence,0_8_16,2022-07-15T14:26:59.789Z,,,,,,6,2817,completion,,,0.545,,,,,,,,,,,,,,,,,0.515,true,246598,246597,243763,243765.00000000003,243780,246613,,,
fixation,canvas.Screen,0_8_17_0,2022-07-15T14:27:00.288Z,,,,,,4,684,timeout,,,0.53,,,,,,,,,,,,,,,,,0.51,true,247097,247096,246597,246598,246613,247297,,,
stimulus,canvas.Screen,0_8_17_1,2022-07-15T14:27:01.107Z,,,,,,4,800.0000000000291,response,,0.51,0.53,,,https://raw.githubusercontent.com/carero2/loss-perception/main/png/0.51blue1yellowb%3D1w%3D100v%3D31.png,https://raw.githubusercontent.com/carero2/loss-perception/main/png/0.53blue1yellowb%3D1w%3D100v%3D31.png,,,,,,,,,true,j,keypress(j),0.53,0.51,true,247915,247896.00000000003,247096,247293,247297,247947,,,
choice,canvas.Screen,0_8_17_2,2022-07-15T14:27:02.124Z,,,,0.53,,4,1000,timeout,,,0.53,,0.51,,,6,36,,,,,,,,,,,0.51,true,248933,248930,247930,247918,247947,248947,136,,
ITI,canvas.Screen,0_8_17_3,2022-07-15T14:27:02.622Z,,,2947,,,4,499,timeout,,,0.53,,,,,,,,,,,,,,,,,0.51,true,249431,249430,248930,248933,248947,249446,,,
trial,flow.Sequence,0_8_17,2022-07-15T14:27:02.623Z,,,,,,4,2817,completion,,,0.53,,,,,,,,,,,,,,,,,0.51,true,249431,249430,246597,246598,246613,249446,,,
fixation,canvas.Screen,0_8_18_0,2022-07-15T14:27:03.122Z,,,,,,4,701,timeout,,,0.49,,,,,,,,,,,,,,,,,0.47,true,249931,249930,249430,249432.00000000003,249446,250147,,,
stimulus,canvas.Screen,0_8_18_1,2022-07-15T14:27:04.414Z,,,,,,4,1273,response,,0.47,0.49,,,https://raw.githubusercontent.com/carero2/loss-perception/main/png/0.47blue1yellowb%3D1w%3D100v%3D24.png,https://raw.githubusercontent.com/carero2/loss-perception/main/png/0.49blue1yellowb%3D1w%3D100v%3D24.png,,,,,,,,,true,f,keypress(f),0.49,0.47,true,251223,251203,249930,250144,250147,251263,,,
choice,canvas.Screen,0_8_18_2,2022-07-15T14:27:05.439Z,,,,0.47,,4,1000,timeout,,,0.49,,0.49,,,-6,30,,,,,,,,,,,0.47,true,252247,252247,251246,251225,251263,252263,130,,
ITI,canvas.Screen,0_8_18_3,2022-07-15T14:27:05.939Z,,,2603,,,4,500,timeout,,,0.49,,,,,,,,,,,,,,,,,0.47,true,252747,252747,252247,252248.00000000003,252263,252763,,,
trial,flow.Sequence,0_8_18,2022-07-15T14:27:05.939Z,,,,,,4,3301,completion,,,0.49,,,,,,,,,,,,,,,,,0.47,true,252748.00000000003,252747,249430,249432.00000000003,249446,252763,,,
fixation,canvas.Screen,0_8_19_0,2022-07-15T14:27:06.439Z,,,,,,2,734,timeout,,,0.495,,,,,,,,,,,,,,,,,0.485,true,253248.00000000003,253247,252747,252748.00000000003,252763,253497,,,
stimulus,canvas.Screen,0_8_19_1,2022-07-15T14:27:07.267Z,,,,,,2,808,response,,0.485,0.495,,,https://raw.githubusercontent.com/carero2/loss-perception/main/png/0.485blue1yellowb%3D1w%3D100v%3D13.png,https://raw.githubusercontent.com/carero2/loss-perception/main/png/0.495blue1yellowb%3D1w%3D100v%3D13.png,,,,,,,,,true,j,keypress(j),0.495,0.485,true,254075.00000000003,254055,253247,253485,253497,254113,,,
choice,canvas.Screen,0_8_19_2,2022-07-15T14:27:08.289Z,,,,0.495,,2,1000,timeout,,,0.495,,0.485,,,-1,29,,,,,,,,,,,0.485,true,255097,255097,254096,254078,254113,255113,129,,
ITI,canvas.Screen,0_8_19_3,2022-07-15T14:27:08.789Z,,,2908,,,2,500,timeout,,,0.495,,,,,,,,,,,,,,,,,0.485,true,255597,255597,255097,255098,255113,255613,,,
trial,flow.Sequence,0_8_19,2022-07-15T14:27:08.789Z,,,,,,2,2834,completion,,,0.495,,,,,,,,,,,,,,,,,0.485,true,255598,255597,252747,252748.00000000003,252763,255613,,,
fixation,canvas.Screen,0_8_20_0,2022-07-15T14:27:09.289Z,,,,,,4,834,timeout,,,0.53,,,,,,,,,,,,,,,,,0.51,true,256096.99999999997,256097,255597,255598,255613,256447,,,
stimulus,canvas.Screen,0_8_20_1,2022-07-15T14:27:10.190Z,,,,,,4,881.9999999999709,response,,0.51,0.53,,,https://raw.githubusercontent.com/carero2/loss-perception/main/png/0.51blue1yellowb%3D1w%3D100v%3D81.png,https://raw.githubusercontent.com/carero2/loss-perception/main/png/0.53blue1yellowb%3D1w%3D100v%3D81.png,,,,,,,,,true,j,keypress(j),0.53,0.51,true,256999.00000000003,256978.99999999997,256097,256437,256447,257030,,,
choice,canvas.Screen,0_8_20_2,2022-07-15T14:27:11.205Z,,,,0.53,,4,1000,timeout,,,0.53,,0.51,,,6,35,,,,,,,,,,,0.51,true,258014,258013,257013,257001.00000000003,257030,258030,135,,
ITI,canvas.Screen,0_8_20_3,2022-07-15T14:27:11.705Z,,,2454,,,4,500,timeout,,,0.53,,,,,,,,,,,,,,,,,0.51,true,258514,258513,258013,258014,258030,258530,,,
trial,flow.Sequence,0_8_20,2022-07-15T14:27:11.705Z,,,,,,4,2900,completion,,,0.53,,,,,,,,,,,,,,,,,0.51,true,258514,258513,255597,255598,255613,258530,,,
fixation,canvas.Screen,0_8_21_0,2022-07-15T14:27:12.205Z,,,,,,6,716,timeout,,,0.485,,,,,,,,,,,,,,,,,0.455,false,259014,259013,258513,258514,258530,259246,,,
stimulus,canvas.Screen,0_8_21_1,2022-07-15T14:27:13.126Z,,,,,,6,903,response,,0.485,0.485,,,https://raw.githubusercontent.com/carero2/loss-perception/main/png/0.485blue1yellowb%3D1w%3D100v%3D38.png,https://raw.githubusercontent.com/carero2/loss-perception/main/png/0.455blue1yellowb%3D1w%3D100v%3D38.png,,,,,,,,,true,f,keypress(f),0.455,0.455,false,259935,259916,259013,259245,259246,259980,,,
choice,canvas.Screen,0_8_21_2,2022-07-15T14:27:14.155Z,,,,0.485,,6,1000,timeout,,,0.485,,0.455,,,-3,32,,,,,,,,,,,0.455,false,260964,260963,259964,259937,259980,260980,132,,
ITI,canvas.Screen,0_8_21_3,2022-07-15T14:27:14.655Z,,,2541,,,6,500,timeout,,,0.485,,,,,,,,,,,,,,,,,0.455,false,261464,261463,260963,260965.00000000003,260980,261480,,,
trial,flow.Sequence,0_8_21,2022-07-15T14:27:14.656Z,,,,,,6,2933,completion,,,0.485,,,,,,,,,,,,,,,,,0.455,false,261465.00000000003,261463,258513,258514,258530,261480,,,
fixation,canvas.Screen,0_8_22_0,2022-07-15T14:27:15.155Z,,,,,,6,700,timeout,,,0.545,,,,,,,,,,,,,,,,,0.515,false,261964,261963,261463,261465.00000000003,261480,262180,,,
stimulus,canvas.Screen,0_8_22_1,2022-07-15T14:27:16.188Z,,,,,,6,1014.0000000000582,response,,0.545,0.545,,,https://raw.githubusercontent.com/carero2/loss-perception/main/png/0.545blue1yellowb%3D1w%3D100v%3D63.png,https://raw.githubusercontent.com/carero2/loss-perception/main/png/0.515blue1yellowb%3D1w%3D100v%3D63.png,,,,,,,,,true,f,keypress(f),0.515,0.515,false,262997,262977.00000000006,261963,262167.00000000006,262180,263030,,,
choice,canvas.Screen,0_8_22_2,2022-07-15T14:27:17.205Z,,,,0.545,,6,1000,timeout,,,0.545,,0.515,,,9,41,,,,,,,,,,,0.515,false,264014,264013,263013,262999,263030,264030,141,,
ITI,canvas.Screen,0_8_22_3,2022-07-15T14:27:17.707Z,,,2955,,,6,500,timeout,,,0.545,,,,,,,,,,,,,,,,,0.515,false,264515,264513,264013,264014,264030,264530,,,
trial,flow.Sequence,0_8_22,2022-07-15T14:27:17.707Z,,,,,,6,3033,completion,,,0.545,,,,,,,,,,,,,,,,,0.515,false,264516,264513,261463,261465.00000000003,261480,264530,,,
fixation,canvas.Screen,0_8_23_0,2022-07-15T14:27:18.205Z,,,,,,2,717,timeout,,,0.515,,,,,,,,,,,,,,,,,0.505,true,265014,265013,264513,264516,264530,265247,,,
stimulus,canvas.Screen,0_8_23_1,2022-07-15T14:27:19.238Z,,,,,,2,1014,response,,0.505,0.515,,,https://raw.githubusercontent.com/carero2/loss-perception/main/png/0.505blue1yellowb%3D1w%3D100v%3D27.png,https://raw.githubusercontent.com/carero2/loss-perception/main/png/0.515blue1yellowb%3D1w%3D100v%3D27.png,,,,,,,,,true,j,keypress(j),0.515,0.505,true,266047,266027,265013,265231,265247,266080,,,
choice,canvas.Screen,0_8_23_2,2022-07-15T14:27:20.255Z,,,,0.515,,2,1000,timeout,,,0.515,,0.505,,,3,44,,,,,,,,,,,0.505,true,267064,267063,266063,266049,266080,267080,144,,
ITI,canvas.Screen,0_8_23_3,2022-07-15T14:27:20.755Z,,,2069,,,2,500,timeout,,,0.515,,,,,,,,,,,,,,,,,0.505,true,267564,267563,267063,267064,267080,267580,,,
trial,flow.Sequence,0_8_23,2022-07-15T14:27:20.756Z,,,,,,2,3033,completion,,,0.515,,,,,,,,,,,,,,,,,0.505,true,267564,267563,264513,264516,264530,267580,,,
fixation,canvas.Screen,0_8_24_0,2022-07-15T14:27:21.255Z,,,,,,2,700,timeout,,,0.505,,,,,,,,,,,,,,,,,0.495,true,268064,268063,267563,267565,267580,268280,,,
stimulus,canvas.Screen,0_8_24_1,2022-07-15T14:27:22.246Z,,,,,,2,972,response,,0.495,0.505,,,https://raw.githubusercontent.com/carero2/loss-perception/main/png/0.495blue1yellowb%3D1w%3D100v%3D95.png,https://raw.githubusercontent.com/carero2/loss-perception/main/png/0.505blue1yellowb%3D1w%3D100v%3D95.png,,,,,,,,,true,j,keypress(j),0.505,0.495,true,269054.00000000006,269035,268063,268277,268280,269097,,,
choice,canvas.Screen,0_8_24_2,2022-07-15T14:27:23.272Z,,,,0.505,,2,1000,timeout,,,0.505,,0.495,,,1,45,,,,,,,,,,,0.495,true,270080,270080,269080,269057,269097,270097,145,,
ITI,canvas.Screen,0_8_24_3,2022-07-15T14:27:23.772Z,,,2974,,,2,500,timeout,,,0.505,,,,,,,,,,,,,,,,,0.495,true,270581,270580,270080,270080,270097,270597,,,
trial,flow.Sequence,0_8_24,2022-07-15T14:27:23.772Z,,,,,,2,3000,completion,,,0.505,,,,,,,,,,,,,,,,,0.495,true,270581,270580,267563,267565,267580,270597,,,
fixation,canvas.Screen,0_8_25_0,2022-07-15T14:27:24.272Z,,,,,,4,699,timeout,,,0.51,,,,,,,,,,,,,,,,,0.49,true,271081,271080,270580,270581,270597,271296,,,
stimulus,canvas.Screen,0_8_25_1,2022-07-15T14:27:25.134Z,,,,,,4,843,response,,0.49,0.51,,,https://raw.githubusercontent.com/carero2/loss-perception/main/png/0.49blue1yellowb%3D1w%3D100v%3D37.png,https://raw.githubusercontent.com/carero2/loss-perception/main/png/0.51blue1yellowb%3D1w%3D100v%3D37.png,,,,,,,,,true,j,keypress(j),0.51,0.49,true,271943,271923,271080,271291,271296,271979,,,
choice,canvas.Screen,0_8_25_2,2022-07-15T14:27:26.155Z,,,,0.51,,4,1000,timeout,,,0.51,,0.49,,,2,47,,,,,,,,,,,0.49,true,272964,272963,271964,271945,271979,272979,147,,
ITI,canvas.Screen,0_8_25_3,2022-07-15T14:27:26.655Z,,,2762,,,4,501,timeout,,,0.51,,,,,,,,,,,,,,,,,0.49,true,273464,273463,272963,272965.00000000006,272979,273480,,,
trial,flow.Sequence,0_8_25,2022-07-15T14:27:26.656Z,,,,,,4,2866,completion,,,0.51,,,,,,,,,,,,,,,,,0.49,true,273465.00000000006,273463,270580,270581,270597,273480,,,
fixation,canvas.Screen,0_8_26_0,2022-07-15T14:27:27.155Z,,,,,,6,717,timeout,,,0.515,,,,,,,,,,,,,,,,,0.485,true,273964,273963,273463,273465.00000000006,273480,274197,,,
stimulus,canvas.Screen,0_8_26_1,2022-07-15T14:27:28.068Z,,,,,,6,893,response,,0.485,0.515,,,https://raw.githubusercontent.com/carero2/loss-perception/main/png/0.485blue1yellowb%3D1w%3D100v%3D61.png,https://raw.githubusercontent.com/carero2/loss-perception/main/png/0.515blue1yellowb%3D1w%3D100v%3D61.png,,,,,,,,,true,j,keypress(j),0.515,0.485,true,274876.00000000006,274856,273963,274186,274197,274913,,,
choice,canvas.Screen,0_8_26_2,2022-07-15T14:27:29.089Z,,,,0.515,,6,1000,timeout,,,0.515,,0.485,,,3,50,,,,,,,,,,,0.485,true,275897,275897,274897,274878,274913,275913,150,,
ITI,canvas.Screen,0_8_26_3,2022-07-15T14:27:29.591Z,,,2486,,,6,500,timeout,,,0.515,,,,,,,,,,,,,,,,,0.485,true,276400.00000000006,276397,275897,275898,275913,276413,,,
trial,flow.Sequence,0_8_26,2022-07-15T14:27:29.593Z,,,,,,6,2917,completion,,,0.515,,,,,,,,,,,,,,,,,0.485,true,276401,276397,273463,273465.00000000006,273480,276413,,,
fixation,canvas.Screen,0_8_27_0,2022-07-15T14:27:30.089Z,,,,,,4,984,timeout,,,0.51,,,,,,,,,,,,,,,,,0.49,false,276898,276897,276397,276402,276413,277397,,,
stimulus,canvas.Screen,0_8_27_1,2022-07-15T14:27:31.522Z,,,,,,4,1414,response,,0.51,0.51,,,https://raw.githubusercontent.com/carero2/loss-perception/main/png/0.51blue1yellowb%3D1w%3D100v%3D2.png,https://raw.githubusercontent.com/carero2/loss-perception/main/png/0.49blue1yellowb%3D1w%3D100v%3D2.png,,,,,,,,,true,f,keypress(f),0.49,0.49,false,278331,278311,276897,277375,277397,278363,,,
choice,canvas.Screen,0_8_27_2,2022-07-15T14:27:32.539Z,,,,0.51,,4,1000,timeout,,,0.51,,0.49,,,2,52,,,,,,,,,,,0.49,false,279347,279347,278347,278333,278363,279363,152,,
ITI,canvas.Screen,0_8_27_3,2022-07-15T14:27:33.039Z,,,2398,,,4,500,timeout,,,0.51,,,,,,,,,,,,,,,,,0.49,false,279848,279847,279347,279348,279363,279863,,,
trial,flow.Sequence,0_8_27,2022-07-15T14:27:33.040Z,,,,,,4,3434,completion,,,0.51,,,,,,,,,,,,,,,,,0.49,false,279848,279847,276397,276401,276413,279863,,,
fixation,canvas.Screen,0_8_28_0,2022-07-15T14:27:33.539Z,,,,,,6,717,timeout,,,0.515,,,,,,,,,,,,,,,,,0.485,false,280347,280347,279847,279849,279863,280580,,,
stimulus,canvas.Screen,0_8_28_1,2022-07-15T14:27:34.937Z,,,,,,6,1379,response,,0.515,0.515,,,https://raw.githubusercontent.com/carero2/loss-perception/main/png/0.515blue1yellowb%3D1w%3D100v%3D96.png,https://raw.githubusercontent.com/carero2/loss-perception/main/png/0.485blue1yellowb%3D1w%3D100v%3D96.png,,,,,,,,,true,f,keypress(f),0.485,0.485,false,281746,281726,280347,280565,280580,281780,,,
choice,canvas.Screen,0_8_28_2,2022-07-15T14:27:35.955Z,,,,0.515,,6,1000,timeout,,,0.515,,0.485,,,3,55,,,,,,,,,,,0.485,false,282764,282763,281763,281748,281780,282780,155,,
ITI,canvas.Screen,0_8_28_3,2022-07-15T14:27:36.455Z,,,2471,,,6,500,timeout,,,0.515,,,,,,,,,,,,,,,,,0.485,false,283264,283263,282763,282765,282780,283280,,,
trial,flow.Sequence,0_8_28,2022-07-15T14:27:36.456Z,,,,,,6,3400,completion,,,0.515,,,,,,,,,,,,,,,,,0.485,false,283264,283263,279847,279848,279863,283280,,,
fixation,canvas.Screen,0_8_29_0,2022-07-15T14:27:36.956Z,,,,,,2,500,timeout,,,0.515,,,,,,,,,,,,,,,,,0.505,true,283764,283763,283263,283265,283280,283780,,,
stimulus,canvas.Screen,0_8_29_1,2022-07-15T14:27:37.732Z,,,,,,2,757,response,,0.505,0.515,,,https://raw.githubusercontent.com/carero2/loss-perception/main/png/0.505blue1yellowb%3D1w%3D100v%3D95.png,https://raw.githubusercontent.com/carero2/loss-perception/main/png/0.515blue1yellowb%3D1w%3D100v%3D95.png,,,,,,,,,true,j,keypress(j),0.515,0.505,true,284540,284520,283763,283767,283780,284580,,,
choice,canvas.Screen,0_8_29_2,2022-07-15T14:27:38.755Z,,,,0.515,,2,1000,timeout,,,0.515,,0.505,,,3,58,,,,,,,,,,,0.505,true,285564,285563,284564,284543,284580,285580,158,,
ITI,canvas.Screen,0_8_29_3,2022-07-15T14:27:39.255Z,,,2129,,,2,500,timeout,,,0.515,,,,,,,,,,,,,,,,,0.505,true,286064,286063,285563,285565,285580,286080,,,
trial,flow.Sequence,0_8_29,2022-07-15T14:27:39.256Z,,,,,,2,2783,completion,,,0.515,,,,,,,,,,,,,,,,,0.505,true,286064,286063,283263,283265,283280,286080,,,
fixation,canvas.Screen,0_8_30_0,2022-07-15T14:27:39.755Z,,,,,,6,700,timeout,,,0.485,,,,,,,,,,,,,,,,,0.455,false,286564,286563,286063,286065,286080,286780,,,
stimulus,canvas.Screen,0_8_30_1,2022-07-15T14:27:40.737Z,,,,,,6,963,response,,0.485,0.485,,,https://raw.githubusercontent.com/carero2/loss-perception/main/png/0.485blue1yellowb%3D1w%3D100v%3D44.png,https://raw.githubusercontent.com/carero2/loss-perception/main/png/0.455blue1yellowb%3D1w%3D100v%3D44.png,,,,,,,,,true,f,keypress(f),0.455,0.455,false,287546,287526,286563,286777,286780,287580,,,
choice,canvas.Screen,0_8_30_2,2022-07-15T14:27:41.755Z,,,,0.485,,6,1000,timeout,,,0.485,,0.455,,,-3,55,,,,,,,,,,,0.455,false,288564,288563,287563,287548,287580,288580,155,,
ITI,canvas.Screen,0_8_30_3,2022-07-15T14:27:42.256Z,,,2924,,,6,499,timeout,,,0.485,,,,,,,,,,,,,,,,,0.455,false,289065,289064,288563,288564,288580,289079,,,
trial,flow.Sequence,0_8_30,2022-07-15T14:27:42.257Z,,,,,,6,2984,completion,,,0.485,,,,,,,,,,,,,,,,,0.455,false,289066.00000000006,289064,286063,286065,286080,289079,,,
fixation,canvas.Screen,0_8_31_0,2022-07-15T14:27:42.756Z,,,,,,2,718,timeout,,,0.495,,,,,,,,,,,,,,,,,0.485,false,289564,289564,289064,289066.00000000006,289079,289797,,,
stimulus,canvas.Screen,0_8_31_1,2022-07-15T14:27:44.037Z,,,,,,2,1262,response,,0.495,0.495,,,https://raw.githubusercontent.com/carero2/loss-perception/main/png/0.495blue1yellowb%3D1w%3D100v%3D69.png,https://raw.githubusercontent.com/carero2/loss-perception/main/png/0.485blue1yellowb%3D1w%3D100v%3D69.png,,,,,,,,,true,f,keypress(f),0.485,0.485,false,290846,290826,289564,289782,289797,290880,,,
choice,canvas.Screen,0_8_31_2,2022-07-15T14:27:45.055Z,,,,0.495,,2,1000,timeout,,,0.495,,0.485,,,-1,54,,,,,,,,,,,0.485,false,291864.00000000006,291863,290864,290848,290880,291880,154,,
ITI,canvas.Screen,0_8_31_3,2022-07-15T14:27:45.557Z,,,2619,,,2,500,timeout,,,0.495,,,,,,,,,,,,,,,,,0.485,false,292366,292364,291863,291865,291880,292380,,,
trial,flow.Sequence,0_8_31,2022-07-15T14:27:45.557Z,,,,,,2,3285,completion,,,0.495,,,,,,,,,,,,,,,,,0.485,false,292366,292364,289064,289066.00000000006,289079,292380,,,
fixation,canvas.Screen,0_8_32_0,2022-07-15T14:27:46.055Z,,,,,,2,700,timeout,,,0.505,,,,,,,,,,,,,,,,,0.495,false,292864.00000000006,292864,292364,292366,292380,293080,,,
stimulus,canvas.Screen,0_8_32_1,2022-07-15T14:27:46.815Z,,,,,,2,740,response,,0.505,0.505,,,https://raw.githubusercontent.com/carero2/loss-perception/main/png/0.505blue1yellowb%3D1w%3D100v%3D9.png,https://raw.githubusercontent.com/carero2/loss-perception/main/png/0.495blue1yellowb%3D1w%3D100v%3D9.png,,,,,,,,,true,f,keypress(f),0.495,0.495,false,293624,293604,292864,293073,293080,293663,,,
choice,canvas.Screen,0_8_32_2,2022-07-15T14:27:47.839Z,,,,0.505,,2,1000,timeout,,,0.505,,0.495,,,1,55,,,,,,,,,,,0.495,false,294648,294647,293647,293626.00000000006,293663,294663,155,,
ITI,canvas.Screen,0_8_32_3,2022-07-15T14:27:48.339Z,,,2784,,,2,500,timeout,,,0.505,,,,,,,,,,,,,,,,,0.495,false,295147,295147,294647,294648,294663,295163,,,
trial,flow.Sequence,0_8_32,2022-07-15T14:27:48.339Z,,,,,,2,2767,completion,,,0.505,,,,,,,,,,,,,,,,,0.495,false,295148,295147,292364,292366,292380,295163,,,
fixation,canvas.Screen,0_8_33_0,2022-07-15T14:27:48.839Z,,,,,,4,533,timeout,,,0.53,,,,,,,,,,,,,,,,,0.51,true,295648,295647,295147,295148,295163,295696,,,
stimulus,canvas.Screen,0_8_33_1,2022-07-15T14:27:50.139Z,,,,,,4,1281,response,,0.51,0.53,,,https://raw.githubusercontent.com/carero2/loss-perception/main/png/0.51blue1yellowb%3D1w%3D100v%3D1.png,https://raw.githubusercontent.com/carero2/loss-perception/main/png/0.53blue1yellowb%3D1w%3D100v%3D1.png,,,,,,,,,true,j,keypress(j),0.53,0.51,true,296948,296928,295647,295694,295696,296980,,,
choice,canvas.Screen,0_8_33_2,2022-07-15T14:27:51.155Z,,,,0.53,,4,1000,timeout,,,0.53,,0.51,,,6,61,,,,,,,,,,,0.51,true,297963,297963,296964,296951,296980,297980,161,,
ITI,canvas.Screen,0_8_33_3,2022-07-15T14:27:51.656Z,,,2748,,,4,500,timeout,,,0.53,,,,,,,,,,,,,,,,,0.51,true,298464,298464,297963,297964,297980,298480,,,
trial,flow.Sequence,0_8_33,2022-07-15T14:27:51.656Z,,,,,,4,3301,completion,,,0.53,,,,,,,,,,,,,,,,,0.51,true,298465.00000000006,298464,295147,295148,295163,298480,,,
fixation,canvas.Screen,0_8_34_0,2022-07-15T14:27:52.155Z,,,,,,6,700,timeout,,,0.545,,,,,,,,,,,,,,,,,0.515,false,298964,298964,298464,298465.00000000006,298480,299180,,,
stimulus,canvas.Screen,0_8_34_1,2022-07-15T14:27:52.867Z,,,,,,6,692,response,,0.545,0.545,,,https://raw.githubusercontent.com/carero2/loss-perception/main/png/0.545blue1yellowb%3D1w%3D100v%3D9.png,https://raw.githubusercontent.com/carero2/loss-perception/main/png/0.515blue1yellowb%3D1w%3D100v%3D9.png,,,,,,,,,true,f,keypress(f),0.515,0.515,false,299676,299656,298964,299169,299180,299714,,,
choice,canvas.Screen,0_8_34_2,2022-07-15T14:27:53.889Z,,,,0.545,,6,999,timeout,,,0.545,,0.515,,,9,70,,,,,,,,,,,0.515,false,300698,300697,299696,299678,299714,300713,170,,
ITI,canvas.Screen,0_8_34_3,2022-07-15T14:27:54.388Z,,,2910,,,6,501,timeout,,,0.545,,,,,,,,,,,,,,,,,0.515,false,301197,301197,300697,300698,300713,301214,,,
trial,flow.Sequence,0_8_34,2022-07-15T14:27:54.389Z,,,,,,6,2717,completion,,,0.545,,,,,,,,,,,,,,,,,0.515,false,301197,301197,298464,298465.00000000006,298480,301214,,,
fixation,canvas.Screen,0_8_35_0,2022-07-15T14:27:54.888Z,,,,,,4,749,timeout,,,0.49,,,,,,,,,,,,,,,,,0.47,true,301697,301696,301197,301198,301214,301963,,,
stimulus,canvas.Screen,0_8_35_1,2022-07-15T14:27:55.964Z,,,,,,4,1057,response,,0.47,0.49,,,https://raw.githubusercontent.com/carero2/loss-perception/main/png/0.47blue1yellowb%3D1w%3D100v%3D72.png,https://raw.githubusercontent.com/carero2/loss-perception/main/png/0.49blue1yellowb%3D1w%3D100v%3D72.png,,,,,,,,,true,j,keypress(j),0.49,0.47,true,302773,302753,301696,301961,301963,302813,,,
choice,canvas.Screen,0_8_35_2,2022-07-15T14:27:56.988Z,,,,0.49,,4,1001,timeout,,,0.49,,0.47,,,-2,68,,,,,,,,,,,0.47,true,303797,303796,302797,302775.00000000006,302813,303814,168,,
ITI,canvas.Screen,0_8_35_3,2022-07-15T14:27:57.489Z,,,2960,,,4,500,timeout,,,0.49,,,,,,,,,,,,,,,,,0.47,true,304297,304297,303796,303798,303814,304314,,,
trial,flow.Sequence,0_8_35,2022-07-15T14:27:57.489Z,,,,,,4,3083,completion,,,0.49,,,,,,,,,,,,,,,,,0.47,true,304298,304297,301197,301198,301214,304314,,,
fixation,canvas.Screen,0_8_36_0,2022-07-15T14:27:57.989Z,,,,,,6,716,timeout,,,0.485,,,,,,,,,,,,,,,,,0.455,false,304798,304797,304297,304299,304314,305030,,,
stimulus,canvas.Screen,0_8_36_1,2022-07-15T14:27:59.138Z,,,,,,6,1129,response,,0.485,0.485,,,https://raw.githubusercontent.com/carero2/loss-perception/main/png/0.485blue1yellowb%3D1w%3D100v%3D61.png,https://raw.githubusercontent.com/carero2/loss-perception/main/png/0.455blue1yellowb%3D1w%3D100v%3D61.png,,,,,,,,,true,f,keypress(f),0.455,0.455,false,305946,305926,304797,305021,305030,305980,,,
choice,canvas.Screen,0_8_36_2,2022-07-15T14:28:00.155Z,,,,0.485,,6,1000,timeout,,,0.485,,0.455,,,-3,65,,,,,,,,,,,0.455,false,306964,306963,305963,305948,305980,306980,165,,
ITI,canvas.Screen,0_8_36_3,2022-07-15T14:28:00.656Z,,,2650,,,6,500,timeout,,,0.485,,,,,,,,,,,,,,,,,0.455,false,307465.00000000006,307464,306963,306967,306980,307480,,,
trial,flow.Sequence,0_8_36,2022-07-15T14:28:00.657Z,,,,,,6,3150,completion,,,0.485,,,,,,,,,,,,,,,,,0.455,false,307465.00000000006,307464,304297,304298,304314,307480,,,
fixation,canvas.Screen,0_8_37_0,2022-07-15T14:28:01.156Z,,,,,,6,750,timeout,,,0.515,,,,,,,,,,,,,,,,,0.485,true,307964,307964,307464,307466,307480,308230,,,
stimulus,canvas.Screen,0_8_37_1,2022-07-15T14:28:02.032Z,,,,,,6,857,response,,0.485,0.515,,,https://raw.githubusercontent.com/carero2/loss-perception/main/png/0.485blue1yellowb%3D1w%3D100v%3D56.png,https://raw.githubusercontent.com/carero2/loss-perception/main/png/0.515blue1yellowb%3D1w%3D100v%3D56.png,,,,,,,,,true,j,keypress(j),0.515,0.485,true,308841,308821,307964,308223,308230,308880,,,
choice,canvas.Screen,0_8_37_2,2022-07-15T14:28:03.056Z,,,,0.515,,6,1000,timeout,,,0.515,,0.485,,,3,68,,,,,,,,,,,0.485,true,309864.00000000006,309864,308864,308843,308880,309880,168,,
ITI,canvas.Screen,0_8_37_3,2022-07-15T14:28:03.555Z,,,2709,,,6,500,timeout,,,0.515,,,,,,,,,,,,,,,,,0.485,true,310364.00000000006,310364,309864,309865,309880,310380,,,
trial,flow.Sequence,0_8_37,2022-07-15T14:28:03.556Z,,,,,,6,2884,completion,,,0.515,,,,,,,,,,,,,,,,,0.485,true,310364.00000000006,310364,307464,307466,307480,310380,,,
fixation,canvas.Screen,0_8_38_0,2022-07-15T14:28:04.056Z,,,,,,4,700,timeout,,,0.53,,,,,,,,,,,,,,,,,0.51,true,310864.00000000006,310864,310364,310365,310380,311080,,,
stimulus,canvas.Screen,0_8_38_1,2022-07-15T14:28:05.018Z,,,,,,4,943,response,,0.51,0.53,,,https://raw.githubusercontent.com/carero2/loss-perception/main/png/0.51blue1yellowb%3D1w%3D100v%3D59.png,https://raw.githubusercontent.com/carero2/loss-perception/main/png/0.53blue1yellowb%3D1w%3D100v%3D59.png,,,,,,,,,true,j,keypress(j),0.53,0.51,true,311827,311807,310864,311079,311080,311864,,,
choice,canvas.Screen,0_8_38_2,2022-07-15T14:28:06.038Z,,,,0.53,,4,1000,timeout,,,0.53,,0.51,,,6,74,,,,,,,,,,,0.51,true,312847,312846,311847,311829,311864,312864,174,,
ITI,canvas.Screen,0_8_38_3,2022-07-15T14:28:06.539Z,,,2880,,,4,500,timeout,,,0.53,,,,,,,,,,,,,,,,,0.51,true,313348,313347,312846,312848,312864,313364,,,
trial,flow.Sequence,0_8_38,2022-07-15T14:28:06.539Z,,,,,,4,2967,completion,,,0.53,,,,,,,,,,,,,,,,,0.51,true,313348,313347,310364,310365,310380,313364,,,
fixation,canvas.Screen,0_8_39_0,2022-07-15T14:28:07.039Z,,,,,,4,716,timeout,,,0.49,,,,,,,,,,,,,,,,,0.47,true,313847,313847,313347,313349,313364,314080,,,
stimulus,canvas.Screen,0_8_39_1,2022-07-15T14:28:08.050Z,,,,,,4,992,response,,0.47,0.49,,,https://raw.githubusercontent.com/carero2/loss-perception/main/png/0.47blue1yellowb%3D1w%3D100v%3D63.png,https://raw.githubusercontent.com/carero2/loss-perception/main/png/0.49blue1yellowb%3D1w%3D100v%3D63.png,,,,,,,,,true,j,keypress(j),0.49,0.47,true,314858,314839,313847,314069,314080,314897,,,
choice,canvas.Screen,0_8_39_2,2022-07-15T14:28:09.072Z,,,,0.49,,4,1000,timeout,,,0.49,,0.47,,,-2,72,,,,,,,,,,,0.47,true,315881,315880,314880,314861,314897,315897,172,,
ITI,canvas.Screen,0_8_39_3,2022-07-15T14:28:09.572Z,,,2115,,,4,500,timeout,,,0.49,,,,,,,,,,,,,,,,,0.47,true,316380,316380,315880,315881,315897,316397,,,
trial,flow.Sequence,0_8_39,2022-07-15T14:28:09.572Z,,,,,,4,3016,completion,,,0.49,,,,,,,,,,,,,,,,,0.47,true,316381,316380,313347,313348,313364,316397,,,
fixation,canvas.Screen,0_8_40_0,2022-07-15T14:28:10.072Z,,,,,,2,717,timeout,,,0.515,,,,,,,,,,,,,,,,,0.505,true,316881,316880,316380,316381,316397,317114,,,
stimulus,canvas.Screen,0_8_40_1,2022-07-15T14:28:11.143Z,,,,,,2,1052,response,,0.505,0.515,,,https://raw.githubusercontent.com/carero2/loss-perception/main/png/0.505blue1yellowb%3D1w%3D100v%3D69.png,https://raw.githubusercontent.com/carero2/loss-perception/main/png/0.515blue1yellowb%3D1w%3D100v%3D69.png,,,,,,,,,true,j,keypress(j),0.515,0.505,true,317952,317932,316880,317098,317114,317996,,,
choice,canvas.Screen,0_8_40_2,2022-07-15T14:28:12.172Z,,,,0.515,,2,1001,timeout,,,0.515,,0.505,,,3,75,,,,,,,,,,,0.505,true,318981,318980,317980,317954,317996,318997,175,,
ITI,canvas.Screen,0_8_40_3,2022-07-15T14:28:12.672Z,,,2377,,,2,500,timeout,,,0.515,,,,,,,,,,,,,,,,,0.505,true,319481,319480,318980,318981,318997,319497,,,
trial,flow.Sequence,0_8_40,2022-07-15T14:28:12.673Z,,,,,,2,3083,completion,,,0.515,,,,,,,,,,,,,,,,,0.505,true,319481,319480,316380,316381,316397,319497,,,
fixation,canvas.Screen,0_8_41_0,2022-07-15T14:28:13.172Z,,,,,,2,683,timeout,,,0.495,,,,,,,,,,,,,,,,,0.485,true,319981,319980,319480,319482,319497,320180,,,
stimulus,canvas.Screen,0_8_41_1,2022-07-15T14:28:14.609Z,,,,,,2,1418,response,,0.485,0.495,,,https://raw.githubusercontent.com/carero2/loss-perception/main/png/0.485blue1yellowb%3D1w%3D100v%3D90.png,https://raw.githubusercontent.com/carero2/loss-perception/main/png/0.495blue1yellowb%3D1w%3D100v%3D90.png,,,,,,,,,true,f,keypress(f),0.495,0.485,true,321417.00000000006,321398,319980,320176,320180,321447,,,
choice,canvas.Screen,0_8_41_2,2022-07-15T14:28:15.624Z,,,,0.485,,2,1000,timeout,,,0.495,,0.495,,,-3,72,,,,,,,,,,,0.485,true,322433,322430,321430,321420,321447,322447,172,,
ITI,canvas.Screen,0_8_41_3,2022-07-15T14:28:16.122Z,,,2875,,,2,500,timeout,,,0.495,,,,,,,,,,,,,,,,,0.485,true,322931,322930,322430,322433,322447,322947,,,
trial,flow.Sequence,0_8_41,2022-07-15T14:28:16.123Z,,,,,,2,3433,completion,,,0.495,,,,,,,,,,,,,,,,,0.485,true,322932,322930,319480,319482,319497,322947,,,
fixation,canvas.Screen,0_8_42_0,2022-07-15T14:28:16.622Z,,,,,,6,700,timeout,,,0.545,,,,,,,,,,,,,,,,,0.515,true,323431,323430,322930,322932,322947,323647,,,
stimulus,canvas.Screen,0_8_42_1,2022-07-15T14:28:17.314Z,,,,,,6,673,response,,0.515,0.545,,,https://raw.githubusercontent.com/carero2/loss-perception/main/png/0.515blue1yellowb%3D1w%3D100v%3D30.png,https://raw.githubusercontent.com/carero2/loss-perception/main/png/0.545blue1yellowb%3D1w%3D100v%3D30.png,,,,,,,,,true,j,keypress(j),0.545,0.515,true,324123,324103,323430,323643,323647,324164,,,
choice,canvas.Screen,0_8_42_2,2022-07-15T14:28:18.339Z,,,,0.545,,6,999,timeout,,,0.545,,0.515,,,9,81,,,,,,,,,,,0.515,true,325148,325147,324147,324126.00000000006,324164,325163,181,,
ITI,canvas.Screen,0_8_42_3,2022-07-15T14:28:18.839Z,,,2702,,,6,500,timeout,,,0.545,,,,,,,,,,,,,,,,,0.515,true,325647,325647,325147,325148,325163,325663,,,
trial,flow.Sequence,0_8_42,2022-07-15T14:28:18.839Z,,,,,,6,2700,completion,,,0.545,,,,,,,,,,,,,,,,,0.515,true,325648,325647,322930,322932,322947,325663,,,
fixation,canvas.Screen,0_8_43_0,2022-07-15T14:28:19.339Z,,,,,,2,701,timeout,,,0.505,,,,,,,,,,,,,,,,,0.495,false,326148,326147,325647,325648,325663,326364,,,
stimulus,canvas.Screen,0_8_43_1,2022-07-15T14:28:21.290Z,,,,,,2,1932,response,,0.505,0.505,,,https://raw.githubusercontent.com/carero2/loss-perception/main/png/0.505blue1yellowb%3D1w%3D100v%3D14.png,https://raw.githubusercontent.com/carero2/loss-perception/main/png/0.495blue1yellowb%3D1w%3D100v%3D14.png,,,,,,,,,true,f,keypress(f),0.495,0.495,false,328099,328079,326147,326358,326364,328130,,,
choice,canvas.Screen,0_8_43_2,2022-07-15T14:28:22.305Z,,,,0.505,,2,1000,timeout,,,0.505,,0.495,,,1,82,,,,,,,,,,,0.495,false,329114.00000000006,329114,328114,328101,328130,329130,182,,
ITI,canvas.Screen,0_8_43_3,2022-07-15T14:28:22.806Z,,,2269,,,2,500,timeout,,,0.505,,,,,,,,,,,,,,,,,0.495,false,329614.00000000006,329614,329114,329114.00000000006,329130,329630,,,
trial,flow.Sequence,0_8_43,2022-07-15T14:28:22.806Z,,,,,,2,3951,completion,,,0.505,,,,,,,,,,,,,,,,,0.495,false,329615,329614,325647,325648,325663,329630,,,
fixation,canvas.Screen,0_8_44_0,2022-07-15T14:28:23.305Z,,,,,,4,717,timeout,,,0.51,,,,,,,,,,,,,,,,,0.49,true,330113,330113,329614,329615,329630,330347,,,
stimulus,canvas.Screen,0_8_44_1,2022-07-15T14:28:24.062Z,,,,,,4,737,response,,0.49,0.51,,,https://raw.githubusercontent.com/carero2/loss-perception/main/png/0.49blue1yellowb%3D1w%3D100v%3D76.png,https://raw.githubusercontent.com/carero2/loss-perception/main/png/0.51blue1yellowb%3D1w%3D100v%3D76.png,,,,,,,,,true,j,keypress(j),0.51,0.49,true,330870,330850,330113,330333,330347,330913,,,
choice,canvas.Screen,0_8_44_2,2022-07-15T14:28:25.089Z,,,,0.51,,4,1001,timeout,,,0.51,,0.49,,,2,84,,,,,,,,,,,0.49,true,331898,331897,330897,330873,330913,331914,184,,
ITI,canvas.Screen,0_8_44_3,2022-07-15T14:28:25.589Z,,,2910,,,4,500,timeout,,,0.51,,,,,,,,,,,,,,,,,0.49,true,332398,332397,331897,331898,331914,332414,,,
trial,flow.Sequence,0_8_44,2022-07-15T14:28:25.589Z,,,,,,4,2767,completion,,,0.51,,,,,,,,,,,,,,,,,0.49,true,332398,332397,329614,329615,329630,332414,,,
1st block,flow.Loop,0_8,2022-07-15T14:28:25.590Z,,,,,,,139968,completion,,,,,,,,,,,,,,,,,,,,,,332398,332397,192413,192403,192429,332414,,,
show amount,html.Screen,0_9,2022-07-15T14:29:10.784Z,,,,,,,45177,response,,,,,,,,,,,,,,,,,Continue,click #Continue,,,,377593,377574,332397,332400.00000000006,332414,377613,,,
second block,canvas.Screen,0_10,2022-07-15T14:29:16.988Z,,,,,,,6177.000000000058,response,,,,,,,,,,,,,,,,,space,keypress(Space),,,,383797,383775.00000000006,377598,377593,377613,383831,,,
fixation,canvas.Screen,0_11_0_0,2022-07-15T14:29:17.506Z,,,,,,4,699,timeout,,,0.49,,,,,,,,,,,,,,,,,0.47,false,384315,384314,383814,383798,383831,384530,,,
stimulus,canvas.Screen,0_11_0_1,2022-07-15T14:29:18.602Z,,,,,,4,1077,response,,0.49,0.49,,,https://raw.githubusercontent.com/carero2/loss-perception/main/png/0.49blue1yellowb%3D1w%3D100v%3D70.png,https://raw.githubusercontent.com/carero2/loss-perception/main/png/0.47blue1yellowb%3D1w%3D100v%3D70.png,,,,,,,,,true,f,keypress(f),0.47,0.47,false,385411,385391,384314,384524,384530,385447,,,
choice,canvas.Screen,0_11_0_2,2022-07-15T14:29:19.622Z,,,,0.49,,4,1000,timeout,,,0.49,,0.47,,,-2,,-2,,,,,,,,,,0.47,false,386431,386431,385431,385413,385447,386447,182,,
ITI,canvas.Screen,0_11_0_3,2022-07-15T14:29:20.122Z,,,2645,,,4,500,timeout,,,0.49,,,,,,,,,,,,,,,,,0.47,false,386931,386931,386431,386431,386447,386947,,,
trial,flow.Sequence,0_11_0,2022-07-15T14:29:20.123Z,,,,,,4,3100,completion,,,0.49,,,,,,,,,,,,,,,,,0.47,false,386932,386931,383814,383797,383831,386947,,,
fixation,canvas.Screen,0_11_1_0,2022-07-15T14:29:20.623Z,,,,,,6,700,timeout,,,0.515,,,,,,,,,,,,,,,,,0.485,false,387431,387431,386931,386932,386947,387647,,,
stimulus,canvas.Screen,0_11_1_1,2022-07-15T14:29:21.403Z,,,,,,6,762,response,,0.515,0.515,,,https://raw.githubusercontent.com/carero2/loss-perception/main/png/0.515blue1yellowb%3D1w%3D100v%3D45.png,https://raw.githubusercontent.com/carero2/loss-perception/main/png/0.485blue1yellowb%3D1w%3D100v%3D45.png,,,,,,,,,true,f,keypress(f),0.485,0.485,false,388212,388193,387431,387633,387647,388247,,,
choice,canvas.Screen,0_11_1_2,2022-07-15T14:29:22.422Z,,,,0.515,,6,1000,timeout,,,0.515,,0.485,,,3,,1,,,,,,,,,,0.485,false,389231,389231,388231,388215.00000000006,388247,389247,185,,
ITI,canvas.Screen,0_11_1_3,2022-07-15T14:29:22.922Z,,,2527,,,6,500,timeout,,,0.515,,,,,,,,,,,,,,,,,0.485,false,389731,389731,389231,389232,389247,389747,,,
trial,flow.Sequence,0_11_1,2022-07-15T14:29:22.923Z,,,,,,6,2784,completion,,,0.515,,,,,,,,,,,,,,,,,0.485,false,389732,389731,386931,386932,386947,389747,,,
fixation,canvas.Screen,0_11_2_0,2022-07-15T14:29:23.422Z,,,,,,6,700,timeout,,,0.545,,,,,,,,,,,,,,,,,0.515,false,390231,390231,389731,389732,389747,390447,,,
stimulus,canvas.Screen,0_11_2_1,2022-07-15T14:29:24.660Z,,,,,,6,1219,response,,0.545,0.545,,,https://raw.githubusercontent.com/carero2/loss-perception/main/png/0.545blue1yellowb%3D1w%3D100v%3D64.png,https://raw.githubusercontent.com/carero2/loss-perception/main/png/0.515blue1yellowb%3D1w%3D100v%3D64.png,,,,,,,,,true,f,keypress(f),0.515,0.515,false,391469,391450,390231,390439,390447,391514,,,
choice,canvas.Screen,0_11_2_2,2022-07-15T14:29:25.689Z,,,,0.545,,6,1000,timeout,,,0.545,,0.515,,,9,,10,,,,,,,,,,0.515,false,392498,392497,391497,391471,391514,392514,194,,
ITI,canvas.Screen,0_11_2_3,2022-07-15T14:29:26.189Z,,,2752,,,6,501,timeout,,,0.545,,,,,,,,,,,,,,,,,0.515,false,392998,392997,392497,392499,392514,393015,,,
trial,flow.Sequence,0_11_2,2022-07-15T14:29:26.189Z,,,,,,6,3250,completion,,,0.545,,,,,,,,,,,,,,,,,0.515,false,392998,392997,389731,389732,389747,393015,,,
fixation,canvas.Screen,0_11_3_0,2022-07-15T14:29:26.689Z,,,,,,4,499,timeout,,,0.53,,,,,,,,,,,,,,,,,0.51,true,393498,393497,392997,392999,393015,393514,,,
stimulus,canvas.Screen,0_11_3_1,2022-07-15T14:29:27.723Z,,,,,,4,1015,response,,0.51,0.53,,,https://raw.githubusercontent.com/carero2/loss-perception/main/png/0.51blue1yellowb%3D1w%3D100v%3D31.png,https://raw.githubusercontent.com/carero2/loss-perception/main/png/0.53blue1yellowb%3D1w%3D100v%3D31.png,,,,,,,,,true,j,keypress(j),0.53,0.51,true,394532,394512,393497,393501.00000000006,393514,394564,,,
choice,canvas.Screen,0_11_3_2,2022-07-15T14:29:28.739Z,,,,0.53,,4,1000,timeout,,,0.53,,0.51,,,6,,16,,,,,,,,,,0.51,true,395548,395547,394547,394534,394564,395564,200,,
ITI,canvas.Screen,0_11_3_3,2022-07-15T14:29:29.239Z,,,2441,,,4,500,timeout,,,0.53,,,,,,,,,,,,,,,,,0.51,true,396048,396047,395547,395548,395564,396064,,,
trial,flow.Sequence,0_11_3,2022-07-15T14:29:29.240Z,,,,,,4,3032,completion,,,0.53,,,,,,,,,,,,,,,,,0.51,true,396049.00000000006,396047,392997,392998,393015,396064,,,
fixation,canvas.Screen,0_11_4_0,2022-07-15T14:29:29.739Z,,,,,,4,500,timeout,,,0.51,,,,,,,,,,,,,,,,,0.49,false,396548,396547,396047,396049.00000000006,396064,396564,,,
stimulus,canvas.Screen,0_11_4_1,2022-07-15T14:29:30.372Z,,,,,,4,613,response,,0.51,0.51,,,https://raw.githubusercontent.com/carero2/loss-perception/main/png/0.51blue1yellowb%3D1w%3D100v%3D37.png,https://raw.githubusercontent.com/carero2/loss-perception/main/png/0.49blue1yellowb%3D1w%3D100v%3D37.png,,,,,,,,,true,f,keypress(f),0.49,0.49,false,397181,397160,396547,396550,396564,397214,,,
choice,canvas.Screen,0_11_4_2,2022-07-15T14:29:31.389Z,,,,0.51,,4,1000,timeout,,,0.51,,0.49,,,2,,18,,,,,,,,,,0.49,false,398198.00000000006,398197,397197,397183,397214,398214,202,,
ITI,canvas.Screen,0_11_4_3,2022-07-15T14:29:31.889Z,,,2228,,,4,500,timeout,,,0.51,,,,,,,,,,,,,,,,,0.49,false,398698.00000000006,398697,398197,398198.00000000006,398214,398714,,,
trial,flow.Sequence,0_11_4,2022-07-15T14:29:31.889Z,,,,,,4,2633,completion,,,0.51,,,,,,,,,,,,,,,,,0.49,false,398698.00000000006,398697,396047,396049.00000000006,396064,398714,,,
fixation,canvas.Screen,0_11_5_0,2022-07-15T14:29:32.389Z,,,,,,2,733,timeout,,,0.505,,,,,,,,,,,,,,,,,0.495,false,399198.00000000006,399197,398697,398699,398714,399447,,,
stimulus,canvas.Screen,0_11_5_1,2022-07-15T14:29:33.674Z,,,,,,2,1267,response,,0.505,0.505,,,https://raw.githubusercontent.com/carero2/loss-perception/main/png/0.505blue1yellowb%3D1w%3D100v%3D62.png,https://raw.githubusercontent.com/carero2/loss-perception/main/png/0.495blue1yellowb%3D1w%3D100v%3D62.png,,,,,,,,,true,j,keypress(j),0.495,0.495,false,400483,400464,399197,399433,399447,400514,,,
choice,canvas.Screen,0_11_5_2,2022-07-15T14:29:34.689Z,,,,0.495,,2,1000,timeout,,,0.505,,0.505,,,-1,,17,,,,,,,,,,0.495,false,401498,401497,400497,400485,400514,401514,201,,
ITI,canvas.Screen,0_11_5_3,2022-07-15T14:29:35.189Z,,,2859,,,2,500,timeout,,,0.505,,,,,,,,,,,,,,,,,0.495,false,401998,401997,401497,401498,401514,402014,,,
trial,flow.Sequence,0_11_5,2022-07-15T14:29:35.190Z,,,,,,2,3283,completion,,,0.505,,,,,,,,,,,,,,,,,0.495,false,401998,401997,398697,398698.00000000006,398714,402014,,,
fixation,canvas.Screen,0_11_6_0,2022-07-15T14:29:35.689Z,,,,,,2,700,timeout,,,0.495,,,,,,,,,,,,,,,,,0.485,false,402498,402497,401997,401999,402014,402714,,,
stimulus,canvas.Screen,0_11_6_1,2022-07-15T14:29:36.449Z,,,,,,2,741,response,,0.495,0.495,,,https://raw.githubusercontent.com/carero2/loss-perception/main/png/0.495blue1yellowb%3D1w%3D100v%3D16.png,https://raw.githubusercontent.com/carero2/loss-perception/main/png/0.485blue1yellowb%3D1w%3D100v%3D16.png,,,,,,,,,true,f,keypress(f),0.485,0.485,false,403258,403238,402497,402708,402714,403297,,,
choice,canvas.Screen,0_11_6_2,2022-07-15T14:29:37.472Z,,,,0.495,,2,1000,timeout,,,0.495,,0.485,,,-1,,16,,,,,,,,,,0.485,false,404281,404281,403281,403260,403297,404297,200,,
ITI,canvas.Screen,0_11_6_3,2022-07-15T14:29:37.972Z,,,2809,,,2,500,timeout,,,0.495,,,,,,,,,,,,,,,,,0.485,false,404781,404781,404281,404282,404297,404797,,,
trial,flow.Sequence,0_11_6,2022-07-15T14:29:37.973Z,,,,,,2,2767,completion,,,0.495,,,,,,,,,,,,,,,,,0.485,false,404782,404781,401997,401999,402014,404797,,,
fixation,canvas.Screen,0_11_7_0,2022-07-15T14:29:38.473Z,,,,,,2,534,timeout,,,0.515,,,,,,,,,,,,,,,,,0.505,true,405281,405281,404781,404782,404797,405331,,,
stimulus,canvas.Screen,0_11_7_1,2022-07-15T14:29:39.298Z,,,,,,2,806,response,,0.505,0.515,,,https://raw.githubusercontent.com/carero2/loss-perception/main/png/0.505blue1yellowb%3D1w%3D100v%3D100.png,https://raw.githubusercontent.com/carero2/loss-perception/main/png/0.515blue1yellowb%3D1w%3D100v%3D100.png,,,,,,,,,true,j,keypress(j),0.515,0.505,true,406107,406087,405281,405329,405331,406147,,,
choice,canvas.Screen,0_11_7_2,2022-07-15T14:29:40.323Z,,,,0.515,,2,1000,timeout,,,0.515,,0.505,,,3,,19,,,,,,,,,,0.505,true,407131,407131,406131,406109,406147,407147,203,,
ITI,canvas.Screen,0_11_7_3,2022-07-15T14:29:40.822Z,,,2062,,,2,500,timeout,,,0.515,,,,,,,,,,,,,,,,,0.505,true,407631,407631,407131,407132,407147,407647,,,
trial,flow.Sequence,0_11_7,2022-07-15T14:29:40.823Z,,,,,,2,2834,completion,,,0.515,,,,,,,,,,,,,,,,,0.505,true,407632,407631,404781,404782,404797,407647,,,
fixation,canvas.Screen,0_11_8_0,2022-07-15T14:29:41.323Z,,,,,,6,700,timeout,,,0.485,,,,,,,,,,,,,,,,,0.455,false,408132,408131,407631,407633,407647,408347,,,
stimulus,canvas.Screen,0_11_8_1,2022-07-15T14:29:42.385Z,,,,,,6,1044,response,,0.485,0.485,,,https://raw.githubusercontent.com/carero2/loss-perception/main/png/0.485blue1yellowb%3D1w%3D100v%3D78.png,https://raw.githubusercontent.com/carero2/loss-perception/main/png/0.455blue1yellowb%3D1w%3D100v%3D78.png,,,,,,,,,true,f,keypress(f),0.455,0.455,false,409194,409175,408131,408344,408347,409231,,,
choice,canvas.Screen,0_11_8_2,2022-07-15T14:29:43.406Z,,,,0.485,,6,1000,timeout,,,0.485,,0.455,,,-3,,16,,,,,,,,,,0.455,false,410215.00000000006,410214,409213,409197,409231,410231,200,,
ITI,canvas.Screen,0_11_8_3,2022-07-15T14:29:43.910Z,,,2055,,,6,499,timeout,,,0.485,,,,,,,,,,,,,,,,,0.455,false,410719,410714,410214,410215.00000000006,410231,410730,,,
trial,flow.Sequence,0_11_8,2022-07-15T14:29:43.911Z,,,,,,6,3067,completion,,,0.485,,,,,,,,,,,,,,,,,0.455,false,410719,410714,407631,407632,407647,410730,,,
fixation,canvas.Screen,0_11_9_0,2022-07-15T14:29:44.406Z,,,,,,6,701,timeout,,,0.515,,,,,,,,,,,,,,,,,0.485,true,411215.00000000006,411214,410714,410720,410730,411431,,,
stimulus,canvas.Screen,0_11_9_1,2022-07-15T14:29:45.357Z,,,,,,6,932,response,,0.485,0.515,,,https://raw.githubusercontent.com/carero2/loss-perception/main/png/0.485blue1yellowb%3D1w%3D100v%3D21.png,https://raw.githubusercontent.com/carero2/loss-perception/main/png/0.515blue1yellowb%3D1w%3D100v%3D21.png,,,,,,,,,true,j,keypress(j),0.515,0.485,true,412166,412146,411214,411415,411431,412197,,,
choice,canvas.Screen,0_11_9_2,2022-07-15T14:29:46.372Z,,,,0.515,,6,1000,timeout,,,0.515,,0.485,,,3,,19,,,,,,,,,,0.485,true,413181,413181,412181,412168,412197,413197,203,,
ITI,canvas.Screen,0_11_9_3,2022-07-15T14:29:46.872Z,,,2509,,,6,500,timeout,,,0.515,,,,,,,,,,,,,,,,,0.485,true,413680,413680,413181,413182,413197,413697,,,
trial,flow.Sequence,0_11_9,2022-07-15T14:29:46.872Z,,,,,,6,2950,completion,,,0.515,,,,,,,,,,,,,,,,,0.485,true,413681,413680,410714,410720,410730,413697,,,
fixation,canvas.Screen,0_11_10_0,2022-07-15T14:29:47.372Z,,,,,,2,717,timeout,,,0.515,,,,,,,,,,,,,,,,,0.505,true,414181,414180,413680,413681,413697,414414,,,
stimulus,canvas.Screen,0_11_10_1,2022-07-15T14:29:49.197Z,,,,,,2,1807,response,,0.505,0.515,,,https://raw.githubusercontent.com/carero2/loss-perception/main/png/0.505blue1yellowb%3D1w%3D100v%3D88.png,https://raw.githubusercontent.com/carero2/loss-perception/main/png/0.515blue1yellowb%3D1w%3D100v%3D88.png,,,,,,,,,true,j,keypress(j),0.515,0.505,true,416006,415987,414180,414403,414414,416047,,,
choice,canvas.Screen,0_11_10_2,2022-07-15T14:29:50.222Z,,,,0.515,,2,1000,timeout,,,0.515,,0.505,,,3,,22,,,,,,,,,,0.505,true,417031,417031,416031,416009,416047,417047,206,,
ITI,canvas.Screen,0_11_10_3,2022-07-15T14:29:50.723Z,,,2846,,,2,500,timeout,,,0.515,,,,,,,,,,,,,,,,,0.505,true,417532,417531,417031,417032,417047,417547,,,
trial,flow.Sequence,0_11_10,2022-07-15T14:29:50.724Z,,,,,,2,3834,completion,,,0.515,,,,,,,,,,,,,,,,,0.505,true,417533,417531,413680,413681,413697,417547,,,
fixation,canvas.Screen,0_11_11_0,2022-07-15T14:29:51.222Z,,,,,,6,734,timeout,,,0.485,,,,,,,,,,,,,,,,,0.455,false,418031,418031,417531,417533,417547,418281,,,
stimulus,canvas.Screen,0_11_11_1,2022-07-15T14:29:52.026Z,,,,,,6,785.0000000000582,response,,0.485,0.485,,,https://raw.githubusercontent.com/carero2/loss-perception/main/png/0.485blue1yellowb%3D1w%3D100v%3D83.png,https://raw.githubusercontent.com/carero2/loss-perception/main/png/0.455blue1yellowb%3D1w%3D100v%3D83.png,,,,,,,,,true,f,keypress(f),0.455,0.455,false,418835.00000000006,418816.00000000006,418031,418269,418281,418881,,,
choice,canvas.Screen,0_11_11_2,2022-07-15T14:29:53.055Z,,,,0.485,,6,1000,timeout,,,0.485,,0.455,,,-3,,19,,,,,,,,,,0.455,false,419864.00000000006,419864,418863,418838,418881,419881,203,,
ITI,canvas.Screen,0_11_11_3,2022-07-15T14:29:53.556Z,,,2418,,,6,499,timeout,,,0.485,,,,,,,,,,,,,,,,,0.455,false,420365,420364,419864,419865,419881,420380,,,
trial,flow.Sequence,0_11_11,2022-07-15T14:29:53.556Z,,,,,,6,2817,completion,,,0.485,,,,,,,,,,,,,,,,,0.455,false,420365,420364,417531,417533,417547,420380,,,
fixation,canvas.Screen,0_11_12_0,2022-07-15T14:29:54.056Z,,,,,,4,501,timeout,,,0.49,,,,,,,,,,,,,,,,,0.47,false,420865,420864,420364,420366,420380,420881,,,
stimulus,canvas.Screen,0_11_12_1,2022-07-15T14:29:55.088Z,,,,,,4,1014,response,,0.49,0.49,,,https://raw.githubusercontent.com/carero2/loss-perception/main/png/0.49blue1yellowb%3D1w%3D100v%3D82.png,https://raw.githubusercontent.com/carero2/loss-perception/main/png/0.47blue1yellowb%3D1w%3D100v%3D82.png,,,,,,,,,true,f,keypress(f),0.47,0.47,false,421897,421878,420864,420868,420881,421931,,,
choice,canvas.Screen,0_11_12_2,2022-07-15T14:29:56.106Z,,,,0.49,,4,1000,timeout,,,0.49,,0.47,,,-2,,17,,,,,,,,,,0.47,false,422915,422914,421914,421899,421931,422931,201,,
ITI,canvas.Screen,0_11_12_3,2022-07-15T14:29:56.606Z,,,2605,,,4,500,timeout,,,0.49,,,,,,,,,,,,,,,,,0.47,false,423415,423414,422914,422915,422931,423431,,,
trial,flow.Sequence,0_11_12,2022-07-15T14:29:56.606Z,,,,,,4,3034,completion,,,0.49,,,,,,,,,,,,,,,,,0.47,false,423415,423414,420364,420366,420380,423431,,,
fixation,canvas.Screen,0_11_13_0,2022-07-15T14:29:57.106Z,,,,,,4,716,timeout,,,0.51,,,,,,,,,,,,,,,,,0.49,false,423915,423914,423414,423415,423431,424147,,,
stimulus,canvas.Screen,0_11_13_1,2022-07-15T14:29:58.376Z,,,,,,4,1251,response,,0.51,0.51,,,https://raw.githubusercontent.com/carero2/loss-perception/main/png/0.51blue1yellowb%3D1w%3D100v%3D52.png,https://raw.githubusercontent.com/carero2/loss-perception/main/png/0.49blue1yellowb%3D1w%3D100v%3D52.png,,,,,,,,,true,f,keypress(f),0.49,0.49,false,425185,425165,423914,424136,424147,425231,,,
choice,canvas.Screen,0_11_13_2,2022-07-15T14:29:59.406Z,,,,0.51,,4,999,timeout,,,0.51,,0.49,,,2,,19,,,,,,,,,,0.49,false,426215.00000000006,426214,425214,425188,425231,426230,203,,
ITI,canvas.Screen,0_11_13_3,2022-07-15T14:29:59.906Z,,,2347,,,4,501,timeout,,,0.51,,,,,,,,,,,,,,,,,0.49,false,426715.00000000006,426714,426214,426216,426230,426731,,,
trial,flow.Sequence,0_11_13,2022-07-15T14:29:59.906Z,,,,,,4,3283,completion,,,0.51,,,,,,,,,,,,,,,,,0.49,false,426715.00000000006,426714,423414,423415,423431,426731,,,
fixation,canvas.Screen,0_11_14_0,2022-07-15T14:30:00.406Z,,,,,,2,700,timeout,,,0.495,,,,,,,,,,,,,,,,,0.485,true,427215.00000000006,427214,426714,426715.00000000006,426731,427431,,,
stimulus,canvas.Screen,0_11_14_1,2022-07-15T14:30:01.441Z,,,,,,2,1016,response,,0.485,0.495,,,https://raw.githubusercontent.com/carero2/loss-perception/main/png/0.485blue1yellowb%3D1w%3D100v%3D33.png,https://raw.githubusercontent.com/carero2/loss-perception/main/png/0.495blue1yellowb%3D1w%3D100v%3D33.png,,,,,,,,,true,j,keypress(j),0.495,0.485,true,428250,428230,427214,427428,427431,428281,,,
choice,canvas.Screen,0_11_14_2,2022-07-15T14:30:02.456Z,,,,0.495,,2,1000,timeout,,,0.495,,0.485,,,-1,,18,,,,,,,,,,0.485,true,429265,429264,428264,428252,428281,429281,202,,
ITI,canvas.Screen,0_11_14_3,2022-07-15T14:30:02.956Z,,,2609,,,2,500,timeout,,,0.495,,,,,,,,,,,,,,,,,0.485,true,429765,429764,429264,429265,429281,429781,,,
trial,flow.Sequence,0_11_14,2022-07-15T14:30:02.956Z,,,,,,2,3033,completion,,,0.495,,,,,,,,,,,,,,,,,0.485,true,429765,429764,426714,426715.00000000006,426731,429781,,,
fixation,canvas.Screen,0_11_15_0,2022-07-15T14:30:03.456Z,,,,,,6,499,timeout,,,0.545,,,,,,,,,,,,,,,,,0.515,true,430265,430264,429764,429765,429781,430280,,,
stimulus,canvas.Screen,0_11_15_1,2022-07-15T14:30:04.094Z,,,,,,6,620,response,,0.515,0.545,,,https://raw.githubusercontent.com/carero2/loss-perception/main/png/0.515blue1yellowb%3D1w%3D100v%3D59.png,https://raw.githubusercontent.com/carero2/loss-perception/main/png/0.545blue1yellowb%3D1w%3D100v%3D59.png,,,,,,,,,true,j,keypress(j),0.545,0.515,true,430903,430884,430264,430267,430280,430948,,,
choice,canvas.Screen,0_11_15_2,2022-07-15T14:30:05.123Z,,,,0.545,,6,999,timeout,,,0.545,,0.515,,,9,,27,,,,,,,,,,0.515,true,431932,431931,430931,430906,430948,431947,211,,
ITI,canvas.Screen,0_11_15_3,2022-07-15T14:30:05.623Z,,,2419,,,6,501,timeout,,,0.545,,,,,,,,,,,,,,,,,0.515,true,432432,432431,431931,431932,431947,432448,,,
trial,flow.Sequence,0_11_15,2022-07-15T14:30:05.623Z,,,,,,6,2650,completion,,,0.545,,,,,,,,,,,,,,,,,0.515,true,432432,432431,429764,429765,429781,432448,,,
fixation,canvas.Screen,0_11_16_0,2022-07-15T14:30:06.122Z,,,,,,4,699,timeout,,,0.53,,,,,,,,,,,,,,,,,0.51,false,432931,432931,432431,432432,432448,433147,,,
stimulus,canvas.Screen,0_11_16_1,2022-07-15T14:30:07.256Z,,,,,,4,1115,response,,0.53,0.53,,,https://raw.githubusercontent.com/carero2/loss-perception/main/png/0.53blue1yellowb%3D1w%3D100v%3D61.png,https://raw.githubusercontent.com/carero2/loss-perception/main/png/0.51blue1yellowb%3D1w%3D100v%3D61.png,,,,,,,,,true,f,keypress(f),0.51,0.51,false,434065,434046,432931,433145,433147,434097,,,
choice,canvas.Screen,0_11_16_2,2022-07-15T14:30:08.272Z,,,,0.53,,4,1001,timeout,,,0.53,,0.51,,,6,,33,,,,,,,,,,0.51,false,435081,435081,434081,434068,434097,435098,217,,
ITI,canvas.Screen,0_11_16_3,2022-07-15T14:30:08.774Z,,,2966,,,4,500,timeout,,,0.53,,,,,,,,,,,,,,,,,0.51,false,435583,435580,435081,435082,435098,435598,,,
trial,flow.Sequence,0_11_16,2022-07-15T14:30:08.774Z,,,,,,4,3132,completion,,,0.53,,,,,,,,,,,,,,,,,0.51,false,435583,435580,432431,432432,432448,435598,,,
fixation,canvas.Screen,0_11_17_0,2022-07-15T14:30:09.273Z,,,,,,2,682,timeout,,,0.505,,,,,,,,,,,,,,,,,0.495,false,436082,436081,435580,435583,435598,436280,,,
stimulus,canvas.Screen,0_11_17_1,2022-07-15T14:30:10.460Z,,,,,,2,1169,response,,0.505,0.505,,,https://raw.githubusercontent.com/carero2/loss-perception/main/png/0.505blue1yellowb%3D1w%3D100v%3D52.png,https://raw.githubusercontent.com/carero2/loss-perception/main/png/0.495blue1yellowb%3D1w%3D100v%3D52.png,,,,,,,,,true,f,keypress(f),0.495,0.495,false,437269,437250,436081,436279,436280,437298,,,
choice,canvas.Screen,0_11_17_2,2022-07-15T14:30:11.472Z,,,,0.505,,2,1000,timeout,,,0.505,,0.495,,,1,,34,,,,,,,,,,0.495,false,438281,438281,437281,437271,437298,438298,218,,
ITI,canvas.Screen,0_11_17_3,2022-07-15T14:30:11.972Z,,,2462,,,2,500,timeout,,,0.505,,,,,,,,,,,,,,,,,0.495,false,438781,438780,438281,438282,438298,438798,,,
trial,flow.Sequence,0_11_17,2022-07-15T14:30:11.973Z,,,,,,2,3182,completion,,,0.505,,,,,,,,,,,,,,,,,0.495,false,438782,438780,435580,435583,435598,438798,,,
fixation,canvas.Screen,0_11_18_0,2022-07-15T14:30:12.472Z,,,,,,4,733,timeout,,,0.49,,,,,,,,,,,,,,,,,0.47,true,439281,439281,438780,438782,438798,439531,,,
stimulus,canvas.Screen,0_11_18_1,2022-07-15T14:30:13.487Z,,,,,,4,996,response,,0.47,0.49,,,https://raw.githubusercontent.com/carero2/loss-perception/main/png/0.47blue1yellowb%3D1w%3D100v%3D19.png,https://raw.githubusercontent.com/carero2/loss-perception/main/png/0.49blue1yellowb%3D1w%3D100v%3D19.png,,,,,,,,,true,j,keypress(j),0.49,0.47,true,440296,440277,439281,439524,439531,440330,,,
choice,canvas.Screen,0_11_18_2,2022-07-15T14:30:14.506Z,,,,0.49,,4,1001,timeout,,,0.49,,0.47,,,-2,,32,,,,,,,,,,0.47,true,441315,441314,440314,440298,440330,441331,216,,
ITI,canvas.Screen,0_11_18_3,2022-07-15T14:30:15.006Z,,,2087,,,4,500,timeout,,,0.49,,,,,,,,,,,,,,,,,0.47,true,441815,441814,441314,441315,441331,441831,,,
trial,flow.Sequence,0_11_18,2022-07-15T14:30:15.006Z,,,,,,4,3016,completion,,,0.49,,,,,,,,,,,,,,,,,0.47,true,441815,441814,438780,438782,438798,441831,,,
fixation,canvas.Screen,0_11_19_0,2022-07-15T14:30:15.505Z,,,,,,6,700,timeout,,,0.515,,,,,,,,,,,,,,,,,0.485,false,442314,442313,441814,441815,441831,442531,,,
stimulus,canvas.Screen,0_11_19_1,2022-07-15T14:30:16.251Z,,,,,,6,727,response,,0.515,0.515,,,https://raw.githubusercontent.com/carero2/loss-perception/main/png/0.515blue1yellowb%3D1w%3D100v%3D34.png,https://raw.githubusercontent.com/carero2/loss-perception/main/png/0.485blue1yellowb%3D1w%3D100v%3D34.png,,,,,,,,,true,f,keypress(f),0.485,0.485,false,443060,443040,442313,442520,442531,443098,,,
choice,canvas.Screen,0_11_19_2,2022-07-15T14:30:17.273Z,,,,0.515,,6,1000,timeout,,,0.515,,0.485,,,3,,35,,,,,,,,,,0.485,false,444082,444081,443081,443062,443098,444098,219,,
ITI,canvas.Screen,0_11_19_3,2022-07-15T14:30:17.773Z,,,2085,,,6,500,timeout,,,0.515,,,,,,,,,,,,,,,,,0.485,false,444582,444581,444081,444082,444098,444598,,,
trial,flow.Sequence,0_11_19,2022-07-15T14:30:17.773Z,,,,,,6,2750,completion,,,0.515,,,,,,,,,,,,,,,,,0.485,false,444582,444581,441814,441815,441831,444598,,,
fixation,canvas.Screen,0_11_20_0,2022-07-15T14:30:18.272Z,,,,,,2,683,timeout,,,0.495,,,,,,,,,,,,,,,,,0.485,false,445081,445081,444581,444582,444598,445281,,,
stimulus,canvas.Screen,0_11_20_1,2022-07-15T14:30:19.284Z,,,,,,2,992.0000000000582,response,,0.495,0.495,,,https://raw.githubusercontent.com/carero2/loss-perception/main/png/0.495blue1yellowb%3D1w%3D100v%3D83.png,https://raw.githubusercontent.com/carero2/loss-perception/main/png/0.485blue1yellowb%3D1w%3D100v%3D83.png,,,,,,,,,true,f,keypress(f),0.485,0.485,false,446093,446073.00000000006,445081,445274,445281,446131,,,
