sender,sender_type,sender_id,timestamp,meta,,ITI_value,choice,consent,diff_net_value,duration,ended_on,gain_color,left,left_side,loss_color,not_choice,picture_left,picture_right,points,points1Block,points2Block,points3Block,points4Block,points5Block,points6Block,pointsBlock,responded,response,response_action,right,right_side,switch_sides,time_commit,time_end,time_render,time_run,time_show,time_switch,totalPoints,totalPoints_practice,url
welcome,html.Screen,0_0,2022-07-15T14:12:15.399Z,"{""labjs_version"":""20.2.4"",""labjs_build"":{""flavor"":""production"",""commit"":""f5b4a49f956347addd546a832a3327688c2c0fef""},""location"":""https://run.pavlovia.org/Rey/loss-perception/"",""userAgent"":""Mozilla/5.0 (Windows NT 10.0; Win64; x64) AppleWebKit/537.36 (KHTML, like Gecko) Chrome/102.0.5005.115 Safari/537.36 OPR/88.0.4412.75"",""platform"":""Win32"",""language"":""en-GB"",""locale"":""en-GB"",""timeZone"":""Europe/London"",""timezoneOffset"":-60,""screen_width"":1920,""screen_height"":1080,""scroll_width"":1292,""scroll_height"":704,""window_innerWidth"":1292,""window_innerHeight"":752,""devicePixelRatio"":1}",,,,,,2194.449,response,yellow,,,blue,,,,,0,0,0,0,0,0,0,,Continue,click #Continue,,,,6203.9000000003725,6201.5,3993.716,3998.800000000745,4007.051,6207.621,100,100,{}
consent,html.Form,0_1,2022-07-15T14:12:22.035Z,,,,,true,,6632.679000000745,form submission,,,,,,,,,,,,,,,,,,,,,,12840.5,12840.300000000745,6194.244,6204.300000000745,6207.621,12849.196,,,
ProlificID,html.Form,0_2,2022-07-15T14:12:25.100Z,,,,,,,3056.4039999996276,form submission,,,,,,,,,,,,,,,,,,,,,,15905.900000000373,15905.599999999627,12836.017,12840.599999999627,12849.196,15916.626,,,
instructions,html.Form,0_3,2022-07-15T14:12:29.168Z,,,,,,,4056.9739999996273,form submission,,,,,,,,,,,,,,,,,,,,,,19973.700000001118,19973.599999999627,15903.3,15905.900000000373,15916.626,19997.669,,,
Practice,canvas.Screen,0_4,2022-07-15T14:12:33.868Z,,,,,,,4673.330999999998,response,,,,,,,,,,,,,,,,,space,keypress(Space),,,,24673,24671,19970.937,19973.900000000373,19997.669,24678.817,,,
fixation,canvas.Screen,0_5_0_0,2022-07-15T14:12:34.354Z,,,,,,6,493.5440000000017,timeout,,,0.515,,,,,,,,,,,,,,,,,0.485,false,25159.599999999627,25158.917,24665.458,24673.200000001118,24678.817,25172.361,,,
stimulus,canvas.Screen,0_5_0_1,2022-07-15T14:12:37.355Z,,,,,,6,3000.650999999998,timeout,,0.515,0.515,,,https://raw.githubusercontent.com/carero2/loss-perception/main/png/0.515blue1yellowb%3D1w%3D100v%3D82.png,https://raw.githubusercontent.com/carero2/loss-perception/main/png/0.485blue1yellowb%3D1w%3D100v%3D82.png,,,,,,,,,,,,0.485,0.485,false,28160.700000001118,28159.662,25158.917,25159.700000001118,25172.361,28173.012,,,
choice,canvas.Screen,0_5_0_2,2022-07-15T14:12:37.358Z,,,,0,,6,NaN,skipped,,,0.515,,0,,,0,,,,,,,0,false,timeout,,,0.485,false,28163.800000000745,28159.662,,28163.599999999627,,28173.012,,100,
timeout,canvas.Screen,0_5_0_3,2022-07-15T14:12:39.356Z,,,,,,6,2000.5060000000012,timeout,,,0.515,,,,,,,,,,,,,,,,,0.485,false,30160.900000000373,30160.161,28159.662,28164.800000000745,28173.012,30173.518,,,
ITI,canvas.Screen,0_5_0_4,2022-07-15T14:12:39.849Z,,,,,,6,493.4249999999993,timeout,,,0.515,,,,,,,,,,,,,,,,,0.485,false,30654.200000001118,30653.614,30160.161,30161.099999999627,30173.518,30666.943,,,
trial,flow.Sequence,0_5_0,2022-07-15T14:12:39.850Z,,,,,,6,5974.797000000002,completion,,,0.515,,,,,,,,,,,,,,,,,0.485,false,30655.599999999627,30653.614,24665.458,24673.200000001118,24678.817,30666.943,,,
fixation,canvas.Screen,0_5_1_0,2022-07-15T14:12:40.343Z,,,,,,18,493.46900000000096,timeout,,,0.545,,,,,,,,,,,,,,,,,0.455,true,31148.099999999627,31147.077,30653.614,30655.700000001118,30666.943,31160.412,,,
stimulus,canvas.Screen,0_5_1_1,2022-07-15T14:12:43.343Z,,,,,,18,3000.7700000000004,timeout,,0.455,0.545,,,https://raw.githubusercontent.com/carero2/loss-perception/main/png/0.455blue1yellowb%3D1w%3D100v%3D52.png,https://raw.githubusercontent.com/carero2/loss-perception/main/png/0.545blue1yellowb%3D1w%3D100v%3D52.png,,,,,,,,,,,,0.545,0.455,true,34148.59999999963,34147.796,31147.077,31148.300000000745,31160.412,34161.182,,,
choice,canvas.Screen,0_5_1_2,2022-07-15T14:12:43.345Z,,,,0,,18,NaN,skipped,,,0.545,,0,,,0,,,,,,,0,false,timeout,,,0.455,true,34150.5,34147.796,,34150.40000000037,,34161.182,,100,
timeout,canvas.Screen,0_5_1_3,2022-07-15T14:12:45.344Z,,,,,,18,2000.4879999999976,timeout,,,0.545,,,,,,,,,,,,,,,,,0.455,true,36148.90000000037,36148.294,34147.796,34151.09999999963,34161.182,36161.67,,,
ITI,canvas.Screen,0_5_1_4,2022-07-15T14:12:45.837Z,,,,,,18,493.45500000000175,timeout,,,0.545,,,,,,,,,,,,,,,,,0.455,true,36642.300000000745,36641.759,36148.294,36149,36161.67,36655.125,,,
trial,flow.Sequence,0_5_1,2022-07-15T14:12:45.839Z,,,,,,18,5974.815999999999,completion,,,0.545,,,,,,,,,,,,,,,,,0.455,true,36644.20000000112,36641.759,30653.614,30655.599999999627,30666.943,36655.125,,,
fixation,canvas.Screen,0_5_2_0,2022-07-15T14:12:46.330Z,,,,,,12,493.4230000000025,timeout,,,0.53,,,,,,,,,,,,,,,,,0.47,false,37135.800000000745,37135.205,36641.759,36644.300000000745,36655.125,37148.548,,,
stimulus,canvas.Screen,0_5_2_1,2022-07-15T14:12:49.331Z,,,,,,12,3000.742999999995,timeout,,0.53,0.53,,,https://raw.githubusercontent.com/carero2/loss-perception/main/png/0.53blue1yellowb%3D1w%3D100v%3D62.png,https://raw.githubusercontent.com/carero2/loss-perception/main/png/0.47blue1yellowb%3D1w%3D100v%3D62.png,,,,,,,,,,,,0.47,0.47,false,40136.70000000112,40135.933,37135.205,37135.90000000037,37148.548,40149.291,,,
choice,canvas.Screen,0_5_2_2,2022-07-15T14:12:49.334Z,,,,0,,12,NaN,skipped,,,0.53,,0,,,0,,,,,,,0,false,timeout,,,0.47,false,40139.5,40135.933,,40139.300000000745,,40149.291,,100,
timeout,canvas.Screen,0_5_2_3,2022-07-15T14:12:51.332Z,,,,,,12,2000.4830000000002,timeout,,,0.53,,,,,,,,,,,,,,,,,0.47,false,42137.300000000745,42136.434,40135.933,40140.40000000037,40149.291,42149.774,,,
ITI,canvas.Screen,0_5_2_4,2022-07-15T14:12:51.825Z,,,,,,12,493.4690000000046,timeout,,,0.53,,,,,,,,,,,,,,,,,0.47,false,42630.40000000037,42629.895,42136.434,42137.59999999963,42149.774,42643.243,,,
trial,flow.Sequence,0_5_2,2022-07-15T14:12:51.826Z,,,,,,12,5974.769999999997,completion,,,0.53,,,,,,,,,,,,,,,,,0.47,false,42631.59999999963,42629.895,36641.759,36644.300000000745,36655.125,42643.243,,,
fixation,canvas.Screen,0_5_3_0,2022-07-15T14:12:52.319Z,,,,,,6,493.4569999999949,timeout,,,0.485,,,,,,,,,,,,,,,,,0.455,true,43124.20000000112,43123.358,42629.895,42631.90000000037,42643.243,43136.7,,,
stimulus,canvas.Screen,0_5_3_1,2022-07-15T14:12:55.319Z,,,,,,6,3000.895000000004,timeout,,0.455,0.485,,,https://raw.githubusercontent.com/carero2/loss-perception/main/png/0.455blue1yellowb%3D1w%3D100v%3D57.png,https://raw.githubusercontent.com/carero2/loss-perception/main/png/0.485blue1yellowb%3D1w%3D100v%3D57.png,,,,,,,,,,,,0.485,0.455,true,46124.70000000112,46124.093,43123.358,43124.40000000037,43136.7,46137.595,,,
choice,canvas.Screen,0_5_3_2,2022-07-15T14:12:55.321Z,,,,0,,6,NaN,skipped,,,0.485,,0,,,0,,,,,,,0,false,timeout,,,0.455,true,46126.5,46124.093,,46126.300000000745,,46137.595,,100,
timeout,canvas.Screen,0_5_3_3,2022-07-15T14:12:57.320Z,,,,,,6,2000.385000000002,timeout,,,0.485,,,,,,,,,,,,,,,,,0.455,true,48125.09999999963,48124.585,46124.093,46127,46137.595,48137.98,,,
ITI,canvas.Screen,0_5_3_4,2022-07-15T14:12:57.827Z,,,,,,6,506.73999999999796,timeout,,,0.485,,,,,,,,,,,,,,,,,0.455,true,48632.09999999963,48631.378,48124.585,48125.300000000745,48137.98,48644.72,,,
trial,flow.Sequence,0_5_3,2022-07-15T14:12:57.828Z,,,,,,6,5988.134999999995,completion,,,0.485,,,,,,,,,,,,,,,,,0.455,true,48633.20000000112,48631.378,42629.895,42631.800000000745,42643.243,48644.72,,,
fixation,canvas.Screen,0_5_4_0,2022-07-15T14:12:58.320Z,,,,,,9,493.49899999999616,timeout,,,0.485,,,,,,,,,,,,,,,,,0.53,false,49125.5,49124.821,48631.378,48633.40000000037,48644.72,49138.219,,,
stimulus,canvas.Screen,0_5_4_1,2022-07-15T14:13:01.321Z,,,,,,9,3000.7289999999994,timeout,,0.485,0.485,,,https://raw.githubusercontent.com/carero2/loss-perception/main/png/0.485blue1yellowb%3D1w%3D100v%3D21.png,https://raw.githubusercontent.com/carero2/loss-perception/main/png/0.53blue1yellowb%3D1w%3D100v%3D21.png,,,,,,,,,,,,0.53,0.53,false,52126.09999999963,52125.565,49124.821,49125.70000000112,49138.219,52138.948,,,
choice,canvas.Screen,0_5_4_2,2022-07-15T14:13:01.323Z,,,,0,,9,NaN,skipped,,,0.485,,0,,,0,,,,,,,0,false,timeout,,,0.53,false,52128.09999999963,52125.565,,52128.09999999963,,52138.948,,100,
timeout,canvas.Screen,0_5_4_3,2022-07-15T14:13:03.321Z,,,,,,9,2000.464,timeout,,,0.485,,,,,,,,,,,,,,,,,0.53,false,54126.59999999963,54126.084,52125.565,52128.59999999963,52138.948,54139.412,,,
ITI,canvas.Screen,0_5_4_4,2022-07-15T14:13:03.815Z,,,,,,9,493.4690000000046,timeout,,,0.485,,,,,,,,,,,,,,,,,0.53,false,54620.70000000112,54619.525,54126.084,54126.70000000112,54139.412,54632.881,,,
trial,flow.Sequence,0_5_4,2022-07-15T14:13:03.817Z,,,,,,9,5974.805,completion,,,0.485,,,,,,,,,,,,,,,,,0.53,false,54622.70000000112,54619.525,48631.378,48633.40000000037,48644.72,54632.881,,,
fixation,canvas.Screen,0_5_5_0,2022-07-15T14:13:04.308Z,,,,,,6,493.4459999999963,timeout,,,0.545,,,,,,,,,,,,,,,,,0.515,true,55113.59999999963,55112.973,54619.525,54622.90000000037,54632.881,55126.327,,,
stimulus,canvas.Screen,0_5_5_1,2022-07-15T14:13:08.544Z,,,,,,6,4227.725000000006,timeout,,0.515,0.545,,,https://raw.githubusercontent.com/carero2/loss-perception/main/png/0.515blue1yellowb%3D1w%3D100v%3D95.png,https://raw.githubusercontent.com/carero2/loss-perception/main/png/0.545blue1yellowb%3D1w%3D100v%3D95.png,,,,,,,,,,,,0.545,0.515,true,59349.09999999963,59340.706,55112.973,55113.59999999963,55126.327,59354.052,,,
choice,canvas.Screen,0_5_5_2,2022-07-15T14:13:08.550Z,,,,0,,6,NaN,skipped,,,0.545,,0,,,0,,,,,,,0,false,timeout,,,0.515,true,59355.5,59340.706,,59355.20000000112,,59354.052,,100,
timeout,canvas.Screen,0_5_5_3,2022-07-15T14:13:10.537Z,,,,,,6,2000.4579999999987,timeout,,,0.545,,,,,,,,,,,,,,,,,0.515,true,61341.90000000037,61341.18,59340.706,59357.09999999963,59354.052,61354.51,,,
ITI,canvas.Screen,0_5_5_4,2022-07-15T14:13:11.030Z,,,,,,6,493.4579999999987,timeout,,,0.545,,,,,,,,,,,,,,,,,0.515,true,61835.09999999963,61834.622,61341.18,61342.20000000112,61354.51,61847.968,,,
trial,flow.Sequence,0_5_5,2022-07-15T14:13:11.030Z,,,,,,6,7201.741000000002,completion,,,0.545,,,,,,,,,,,,,,,,,0.515,true,61835.300000000745,61834.622,54619.525,54622.90000000037,54632.881,61847.968,,,
fixation,canvas.Screen,0_5_6_0,2022-07-15T14:13:11.524Z,,,,,,12,493.4910000000018,timeout,,,0.53,,,,,,,,,,,,,,,,,0.47,false,62328.90000000037,62328.088,61834.622,61835.40000000037,61847.968,62341.459,,,
stimulus,canvas.Screen,0_5_6_1,2022-07-15T14:13:14.524Z,,,,,,12,3000.7289999999994,timeout,,0.53,0.53,,,https://raw.githubusercontent.com/carero2/loss-perception/main/png/0.53blue1yellowb%3D1w%3D100v%3D70.png,https://raw.githubusercontent.com/carero2/loss-perception/main/png/0.47blue1yellowb%3D1w%3D100v%3D70.png,,,,,,,,,,,,0.47,0.47,false,65329.40000000037,65328.825,62328.088,62329,62341.459,65342.188,,,
choice,canvas.Screen,0_5_6_2,2022-07-15T14:13:14.527Z,,,,0,,12,NaN,skipped,,,0.53,,0,,,0,,,,,,,0,false,timeout,,,0.47,false,65331.5,65328.825,,65331.40000000037,,65342.188,,100,
timeout,canvas.Screen,0_5_6_3,2022-07-15T14:13:16.525Z,,,,,,12,2000.492999999995,timeout,,,0.53,,,,,,,,,,,,,,,,,0.47,false,67329.80000000075,67329.32,65328.825,65332.09999999963,65342.188,67342.681,,,
ITI,canvas.Screen,0_5_6_4,2022-07-15T14:13:17.019Z,,,,,,12,493.42699999999604,timeout,,,0.53,,,,,,,,,,,,,,,,,0.47,false,67823.70000000112,67822.787,67329.32,67329.90000000037,67342.681,67836.108,,,
trial,flow.Sequence,0_5_6,2022-07-15T14:13:17.019Z,,,,,,12,5974.818999999996,completion,,,0.53,,,,,,,,,,,,,,,,,0.47,false,67824,67822.787,61834.622,61835.40000000037,61847.968,67836.108,,,
fixation,canvas.Screen,0_5_7_0,2022-07-15T14:13:17.512Z,,,,,,6,493.45500000000175,timeout,,,0.485,,,,,,,,,,,,,,,,,0.455,true,68316.80000000075,68316.225,67822.787,67824.20000000112,67836.108,68329.563,,,
stimulus,canvas.Screen,0_5_7_1,2022-07-15T14:13:19.129Z,,,,,,6,1603.0369999996328,response,,0.455,0.485,,,https://raw.githubusercontent.com/carero2/loss-perception/main/png/0.455blue1yellowb%3D1w%3D100v%3D92.png,https://raw.githubusercontent.com/carero2/loss-perception/main/png/0.485blue1yellowb%3D1w%3D100v%3D92.png,,,,,,,,,true,f,keypress(f),0.485,0.455,true,69933.59999999963,69932.59999999963,68316.225,68316.90000000037,68329.563,69956.633,,,
choice,canvas.Screen,0_5_7_2,2022-07-15T14:13:21.139Z,,,,0.455,,6,2000.5099999999948,timeout,,,0.485,,0.485,,,9,,,,,,,9,,,,,0.455,true,71944.40000000037,71943.783,69943.298,69935.5,69956.633,71957.143,,109,
timeout,canvas.Screen,0_5_7_3,2022-07-15T14:13:21.140Z,,,,,,6,NaN,skipped,,,0.485,,,,,,,,,,,,,,,,,0.455,true,71945.40000000037,71943.783,,71945.30000000075,,71957.143,,,
ITI,canvas.Screen,0_5_7_4,2022-07-15T14:13:21.633Z,,,,,,6,493.4349999999977,timeout,,,0.485,,,,,,,,,,,,,,,,,0.455,true,72437.90000000037,72437.232,71943.783,71945.40000000037,71957.143,72450.578,,,
trial,flow.Sequence,0_5_7,2022-07-15T14:13:21.633Z,,,,,,6,4601.124000000011,completion,,,0.485,,,,,,,,,,,,,,,,,0.455,true,72438.30000000075,72437.232,67822.787,67824.09999999963,67836.108,72450.578,,,
fixation,canvas.Screen,0_5_8_0,2022-07-15T14:13:22.126Z,,,,,,9,493.47699999999895,timeout,,,0.485,,,,,,,,,,,,,,,,,0.53,false,72931.20000000112,72930.701,72437.232,72438.30000000075,72450.578,72944.055,,,
stimulus,canvas.Screen,0_5_8_1,2022-07-15T14:13:25.191Z,,,,,,9,7335.155000000013,timeout,,0.485,0.485,,,https://raw.githubusercontent.com/carero2/loss-perception/main/png/0.485blue1yellowb%3D1w%3D100v%3D66.png,https://raw.githubusercontent.com/carero2/loss-perception/main/png/0.53blue1yellowb%3D1w%3D100v%3D66.png,,,,,,,,,,,,0.53,0.53,false,75996.40000000037,75994.20000000112,72930.701,72931.40000000037,72944.055,80279.21,,,
choice,canvas.Screen,0_5_8_2,2022-07-15T14:13:25.195Z,,,,0,,9,NaN,skipped,,,0.485,,0,,,0,,,,,,,9,false,timeout,,,0.53,false,75999.5,75994.20000000112,,75999.40000000037,,80279.21,,109,
timeout,canvas.Screen,0_5_8_3,2022-07-15T14:13:31.462Z,,,,,,9,2000.4599999999919,timeout,,,0.485,,,,,,,,,,,,,,,,,0.53,false,82266.80000000075,82266.325,75994.20000000112,76000.20000000112,80279.21,82279.67,,,
ITI,canvas.Screen,0_5_8_4,2022-07-15T14:13:31.956Z,,,,,,9,493.4759999999951,timeout,,,0.485,,,,,,,,,,,,,,,,,0.53,false,82760.5,82759.771,82266.325,82266.90000000037,82279.67,82773.146,,,
trial,flow.Sequence,0_5_8,2022-07-15T14:13:31.957Z,,,,,,9,10309.193,completion,,,0.485,,,,,,,,,,,,,,,,,0.53,false,82762.20000000112,82759.771,72437.232,72438.30000000075,72450.578,82773.146,,,
fixation,canvas.Screen,0_5_9_0,2022-07-15T14:13:32.449Z,,,,,,6,493.41900000000896,timeout,,,0.545,,,,,,,,,,,,,,,,,0.515,true,83253.70000000112,83253.236,82759.771,82762.30000000075,82773.146,83266.565,,,
stimulus,canvas.Screen,0_5_9_1,2022-07-15T14:13:32.841Z,,,,,,6,378.3350000003702,response,,0.515,0.545,,,https://raw.githubusercontent.com/carero2/loss-perception/main/png/0.515blue1yellowb%3D1w%3D100v%3D17.png,https://raw.githubusercontent.com/carero2/loss-perception/main/png/0.545blue1yellowb%3D1w%3D100v%3D17.png,,,,,,,,,true,f,keypress(f),0.545,0.515,true,83646,83644.90000000037,83253.236,83253.80000000075,83266.565,83653.355,,,
choice,canvas.Screen,0_5_9_2,2022-07-15T14:13:34.836Z,,,,0.515,,6,2000.5020000000077,timeout,,,0.545,,0.545,,,-3,,,,,,,6,,,,,0.515,true,85641.40000000037,85640.495,83639.913,83647.90000000037,83653.355,85653.857,,106,
timeout,canvas.Screen,0_5_9_3,2022-07-15T14:13:34.838Z,,,,,,6,NaN,skipped,,,0.545,,,,,,,,,,,,,,,,,0.515,true,85642.90000000037,85640.495,,85642.90000000037,,85653.857,,,
ITI,canvas.Screen,0_5_9_4,2022-07-15T14:13:35.330Z,,,,,,6,493.4119999999966,timeout,,,0.545,,,,,,,,,,,,,,,,,0.515,true,86134.5,86133.942,85640.495,85643,85653.857,86147.269,,,
trial,flow.Sequence,0_5_9,2022-07-15T14:13:35.330Z,,,,,,6,3360.796000000002,completion,,,0.545,,,,,,,,,,,,,,,,,0.515,true,86134.70000000112,86133.942,82759.771,82762.20000000112,82773.146,86147.269,,,
fixation,canvas.Screen,0_5_10_0,2022-07-15T14:13:35.823Z,,,,,,18,493.4780000000028,timeout,,,0.545,,,,,,,,,,,,,,,,,0.455,true,86628.09999999963,86627.402,86133.942,86134.90000000037,86147.269,86640.747,,,
stimulus,canvas.Screen,0_5_10_1,2022-07-15T14:13:37.863Z,,,,,,18,2026.1530000003695,response,,0.455,0.545,,,https://raw.githubusercontent.com/carero2/loss-perception/main/png/0.455blue1yellowb%3D1w%3D100v%3D52.png,https://raw.githubusercontent.com/carero2/loss-perception/main/png/0.545blue1yellowb%3D1w%3D100v%3D52.png,,,,,,,,,true,f,keypress(f),0.545,0.455,true,88667.59999999963,88666.90000000037,86627.402,86628.40000000037,86640.747,88681.232,,,
choice,canvas.Screen,0_5_10_2,2022-07-15T14:13:39.864Z,,,,0.455,,18,2000.4909999999945,timeout,,,0.545,,0.545,,,9,,,,,,,15,,,,,0.455,true,90668.80000000075,90668.394,88667.841,88669.5,88681.232,90681.723,,115,
timeout,canvas.Screen,0_5_10_3,2022-07-15T14:13:39.865Z,,,,,,18,NaN,skipped,,,0.545,,,,,,,,,,,,,,,,,0.455,true,90669.90000000037,90668.394,,90669.90000000037,,90681.723,,,
ITI,canvas.Screen,0_5_10_4,2022-07-15T14:13:40.357Z,,,,,,18,493.4670000000042,timeout,,,0.545,,,,,,,,,,,,,,,,,0.455,true,91162.5,91161.883,90668.394,90670,90681.723,91175.19,,,
trial,flow.Sequence,0_5_10,2022-07-15T14:13:40.358Z,,,,,,18,5014.614000000001,completion,,,0.545,,,,,,,,,,,,,,,,,0.455,true,91162.59999999963,91161.883,86133.942,86134.80000000075,86147.269,91175.19,,,
fixation,canvas.Screen,0_5_11_0,2022-07-15T14:13:40.851Z,,,,,,6,493.44199999999546,timeout,,,0.515,,,,,,,,,,,,,,,,,0.485,false,91655.90000000037,91655.306,91161.883,91162.80000000075,91175.19,91668.632,,,
stimulus,canvas.Screen,0_5_11_1,2022-07-15T14:13:41.385Z,,,,,,6,520.2680000003747,response,,0.515,0.515,,,https://raw.githubusercontent.com/carero2/loss-perception/main/png/0.515blue1yellowb%3D1w%3D100v%3D90.png,https://raw.githubusercontent.com/carero2/loss-perception/main/png/0.485blue1yellowb%3D1w%3D100v%3D90.png,,,,,,,,,true,f,keypress(f),0.485,0.485,false,92189.59999999963,92188.90000000037,91655.306,91656,91668.632,92202.11,,,
choice,canvas.Screen,0_5_11_2,2022-07-15T14:13:43.385Z,,,,0.515,,6,2000.482999999993,timeout,,,0.515,,0.485,,,-3,,,,,,,12,,,,,0.485,false,94189.80000000075,94189.262,92188.738,92191.5,92202.11,94202.593,,112,
timeout,canvas.Screen,0_5_11_3,2022-07-15T14:13:43.386Z,,,,,,6,NaN,skipped,,,0.515,,,,,,,,,,,,,,,,,0.485,false,94190.70000000112,94189.262,,94190.70000000112,,94202.593,,,
ITI,canvas.Screen,0_5_11_4,2022-07-15T14:13:43.878Z,,,,,,6,493.46800000000803,timeout,,,0.515,,,,,,,,,,,,,,,,,0.485,false,94683.20000000112,94682.707,94189.262,94190.80000000075,94202.593,94696.061,,,
trial,flow.Sequence,0_5_11,2022-07-15T14:13:43.879Z,,,,,,6,3507.5169999999925,completion,,,0.515,,,,,,,,,,,,,,,,,0.485,false,94683.59999999963,94682.707,91161.883,91162.80000000075,91175.19,94696.061,,,
fixation,canvas.Screen,0_5_12_0,2022-07-15T14:13:44.372Z,,,,,,9,493.4539999999979,timeout,,,0.485,,,,,,,,,,,,,,,,,0.53,false,95176.70000000112,95176.181,94682.707,94683.70000000112,94696.061,95189.515,,,
stimulus,canvas.Screen,0_5_12_1,2022-07-15T14:13:45.155Z,,,,,,9,769.2850000007456,response,,0.485,0.485,,,https://raw.githubusercontent.com/carero2/loss-perception/main/png/0.485blue1yellowb%3D1w%3D100v%3D86.png,https://raw.githubusercontent.com/carero2/loss-perception/main/png/0.53blue1yellowb%3D1w%3D100v%3D86.png,,,,,,,,,true,f,keypress(f),0.53,0.53,false,95959.70000000112,95958.80000000075,95176.181,95176.80000000075,95189.515,95963.037,,,
choice,canvas.Screen,0_5_12_2,2022-07-15T14:13:47.146Z,,,,0.485,,9,2000.4890000000014,timeout,,,0.485,,0.53,,,3,,,,,,,15,,,,,0.53,false,97950.80000000075,97950.181,95949.705,95961.59999999963,95963.037,97963.526,,115,
timeout,canvas.Screen,0_5_12_3,2022-07-15T14:13:47.147Z,,,,,,9,NaN,skipped,,,0.485,,,,,,,,,,,,,,,,,0.53,false,97951.80000000075,97950.181,,97951.70000000112,,97963.526,,,
ITI,canvas.Screen,0_5_12_4,2022-07-15T14:13:47.639Z,,,,,,9,493.46600000000035,timeout,,,0.485,,,,,,,,,,,,,,,,,0.53,false,98444.20000000112,98443.637,97950.181,97951.90000000037,97963.526,98456.992,,,
trial,flow.Sequence,0_5_12,2022-07-15T14:13:47.640Z,,,,,,9,3747.576000000001,completion,,,0.485,,,,,,,,,,,,,,,,,0.53,false,98444.59999999963,98443.637,94682.707,94683.70000000112,94696.061,98456.992,,,
fixation,canvas.Screen,0_5_13_0,2022-07-15T14:13:48.133Z,,,,,,6,493.4400000000023,timeout,,,0.485,,,,,,,,,,,,,,,,,0.455,true,98937.5,98937.11,98443.637,98444.70000000112,98456.992,98950.432,,,
stimulus,canvas.Screen,0_5_13_1,2022-07-15T14:13:48.962Z,,,,,,6,815.5679999999993,response,,0.455,0.485,,,https://raw.githubusercontent.com/carero2/loss-perception/main/png/0.455blue1yellowb%3D1w%3D100v%3D9.png,https://raw.githubusercontent.com/carero2/loss-perception/main/png/0.485blue1yellowb%3D1w%3D100v%3D9.png,,,,,,,,,true,f,keypress(f),0.485,0.455,true,99766.90000000037,99766,98937.11,98937.59999999963,98950.432,99790.644,,,
choice,canvas.Screen,0_5_13_2,2022-07-15T14:13:50.974Z,,,,0.455,,6,2000.4860000000044,timeout,,,0.485,,0.485,,,9,,,,,,,24,,,,,0.455,true,101778.59999999963,101777.81,99777.323,99768.70000000112,99790.644,101791.13,,124,
timeout,canvas.Screen,0_5_13_3,2022-07-15T14:13:50.975Z,,,,,,6,NaN,skipped,,,0.485,,,,,,,,,,,,,,,,,0.455,true,101780.30000000075,101777.81,,101780.09999999963,,101791.13,,,
ITI,canvas.Screen,0_5_13_4,2022-07-15T14:13:51.467Z,,,,,,6,493.44199999999546,timeout,,,0.485,,,,,,,,,,,,,,,,,0.455,true,102271.70000000112,102271.252,101777.81,101780.30000000075,101791.13,102284.572,,,
trial,flow.Sequence,0_5_13,2022-07-15T14:13:51.467Z,,,,,,6,3814.2599999999948,completion,,,0.485,,,,,,,,,,,,,,,,,0.455,true,102272.09999999963,102271.252,98443.637,98444.70000000112,98456.992,102284.572,,,
fixation,canvas.Screen,0_5_14_0,2022-07-15T14:13:51.961Z,,,,,,18,493.4679999999935,timeout,,,0.545,,,,,,,,,,,,,,,,,0.455,true,102765.70000000112,102764.69,102271.252,102272.20000000112,102284.572,102778.04,,,
stimulus,canvas.Screen,0_5_14_1,2022-07-15T14:13:52.594Z,,,,,,18,619.8600000003789,response,,0.455,0.545,,,https://raw.githubusercontent.com/carero2/loss-perception/main/png/0.455blue1yellowb%3D1w%3D100v%3D89.png,https://raw.githubusercontent.com/carero2/loss-perception/main/png/0.545blue1yellowb%3D1w%3D100v%3D89.png,,,,,,,,,true,f,keypress(f),0.545,0.455,true,103398.90000000037,103397.90000000037,102764.69,102765.80000000075,102778.04,103404.852,,,
choice,canvas.Screen,0_5_14_2,2022-07-15T14:13:54.588Z,,,,0.455,,18,2000.6150000000052,timeout,,,0.545,,0.545,,,9,,,,,,,33,,,,,0.455,true,105392.5,105392.014,103391.522,103401.40000000037,103404.852,105405.467,,133,
timeout,canvas.Screen,0_5_14_3,2022-07-15T14:13:54.589Z,,,,,,18,NaN,skipped,,,0.545,,,,,,,,,,,,,,,,,0.455,true,105393.70000000112,105392.014,,105393.59999999963,,105405.467,,,
ITI,canvas.Screen,0_5_14_4,2022-07-15T14:13:55.094Z,,,,,,18,506.6959999999963,timeout,,,0.545,,,,,,,,,,,,,,,,,0.455,true,105899.40000000037,105898.809,105392.014,105393.80000000075,105405.467,105912.163,,,
trial,flow.Sequence,0_5_14,2022-07-15T14:13:55.095Z,,,,,,18,3614.2369999999937,completion,,,0.545,,,,,,,,,,,,,,,,,0.455,true,105899.59999999963,105898.809,102271.252,102272.20000000112,102284.572,105912.163,,,
fixation,canvas.Screen,0_5_15_0,2022-07-15T14:13:55.588Z,,,,,,6,493.4719999999943,timeout,,,0.545,,,,,,,,,,,,,,,,,0.515,false,106393,106392.275,105898.809,105899.70000000112,105912.163,106405.635,,,
stimulus,canvas.Screen,0_5_15_1,2022-07-15T14:13:56.288Z,,,,,,6,686.2650000003778,response,,0.545,0.545,,,https://raw.githubusercontent.com/carero2/loss-perception/main/png/0.545blue1yellowb%3D1w%3D100v%3D100.png,https://raw.githubusercontent.com/carero2/loss-perception/main/png/0.515blue1yellowb%3D1w%3D100v%3D100.png,,,,,,,,,true,f,keypress(f),0.515,0.515,false,107092.70000000112,107091.90000000037,106392.275,106393.20000000112,106405.635,107112.454,,,
choice,canvas.Screen,0_5_15_2,2022-07-15T14:13:58.295Z,,,,0.545,,6,2000.4930000000022,timeout,,,0.545,,0.515,,,-9,,,,,,,24,,,,,0.515,false,109100.20000000112,109099.592,107099.128,107094.5,107112.454,109112.947,,124,
timeout,canvas.Screen,0_5_15_3,2022-07-15T14:13:58.296Z,,,,,,6,NaN,skipped,,,0.545,,,,,,,,,,,,,,,,,0.515,false,109101.09999999963,109099.592,,109101.09999999963,,109112.947,,,
ITI,canvas.Screen,0_5_15_4,2022-07-15T14:13:58.789Z,,,,,,6,493.55800000000454,timeout,,,0.545,,,,,,,,,,,,,,,,,0.515,false,109593.70000000112,109593.051,109099.592,109101.20000000112,109112.947,109606.505,,,
trial,flow.Sequence,0_5_15,2022-07-15T14:13:58.789Z,,,,,,6,3680.8880000000063,completion,,,0.545,,,,,,,,,,,,,,,,,0.515,false,109594.09999999963,109593.051,105898.809,105899.70000000112,105912.163,109606.505,,,
fixation,canvas.Screen,0_5_16_0,2022-07-15T14:13:59.282Z,,,,,,12,493.3509999999951,timeout,,,0.53,,,,,,,,,,,,,,,,,0.47,false,110087,110086.51,109593.051,109594.30000000075,109606.505,110099.856,,,
stimulus,canvas.Screen,0_5_16_1,2022-07-15T14:13:59.975Z,,,,,,12,679.1440000000002,response,,0.53,0.53,,,https://raw.githubusercontent.com/carero2/loss-perception/main/png/0.53blue1yellowb%3D1w%3D100v%3D80.png,https://raw.githubusercontent.com/carero2/loss-perception/main/png/0.47blue1yellowb%3D1w%3D100v%3D80.png,,,,,,,,,true,f,keypress(f),0.47,0.47,false,110779.80000000075,110779,110086.51,110087.20000000112,110099.856,110793.36,,,
choice,canvas.Screen,0_5_16_2,2022-07-15T14:14:01.976Z,,,,0.53,,12,2000.4869999999937,timeout,,,0.53,,0.47,,,-6,,,,,,,18,,,,,0.47,false,112781.09999999963,112780.495,110780.023,110781.80000000075,110793.36,112793.847,,118,
timeout,canvas.Screen,0_5_16_3,2022-07-15T14:14:01.977Z,,,,,,12,NaN,skipped,,,0.53,,,,,,,,,,,,,,,,,0.47,false,112782.20000000112,112780.495,,112782.09999999963,,112793.847,,,
ITI,canvas.Screen,0_5_16_4,2022-07-15T14:14:02.470Z,,,,,,12,493.4470000000001,timeout,,,0.53,,,,,,,,,,,,,,,,,0.47,false,113275.30000000075,113273.964,112780.495,112782.30000000075,112793.847,113287.294,,,
trial,flow.Sequence,0_5_16,2022-07-15T14:14:02.471Z,,,,,,12,3667.4590000000026,completion,,,0.53,,,,,,,,,,,,,,,,,0.47,false,113275.80000000075,113273.964,109593.051,109594.20000000112,109606.505,113287.294,,,
fixation,canvas.Screen,0_5_17_0,2022-07-15T14:14:02.963Z,,,,,,6,493.4429999999993,timeout,,,0.515,,,,,,,,,,,,,,,,,0.485,false,113767.90000000037,113767.409,113273.964,113275.90000000037,113287.294,113780.737,,,
stimulus,canvas.Screen,0_5_17_1,2022-07-15T14:14:03.914Z,,,,,,6,937.1630000003788,response,,0.515,0.515,,,https://raw.githubusercontent.com/carero2/loss-perception/main/png/0.515blue1yellowb%3D1w%3D100v%3D67.png,https://raw.githubusercontent.com/carero2/loss-perception/main/png/0.485blue1yellowb%3D1w%3D100v%3D67.png,,,,,,,,,true,f,keypress(f),0.485,0.485,false,114719,114717.90000000037,113767.409,113768,113780.737,114727.676,,,
choice,canvas.Screen,0_5_17_2,2022-07-15T14:14:05.911Z,,,,0.515,,6,2000.4629999999888,timeout,,,0.515,,0.485,,,-3,,,,,,,15,,,,,0.485,false,116715.59999999963,116714.799,114714.282,114720.80000000075,114727.676,116728.139,,115,
timeout,canvas.Screen,0_5_17_3,2022-07-15T14:14:05.912Z,,,,,,6,NaN,skipped,,,0.515,,,,,,,,,,,,,,,,,0.485,false,116717.09999999963,116714.799,,116717,,116728.139,,,
ITI,canvas.Screen,0_5_17_4,2022-07-15T14:14:06.404Z,,,,,,6,493.4460000000108,timeout,,,0.515,,,,,,,,,,,,,,,,,0.485,false,117208.80000000075,117208.275,116714.799,116717.09999999963,116728.139,117221.585,,,
trial,flow.Sequence,0_5_17,2022-07-15T14:14:06.404Z,,,,,,6,3920.9809999999998,completion,,,0.515,,,,,,,,,,,,,,,,,0.485,false,117209.20000000112,117208.275,113273.964,113275.90000000037,113287.294,117221.585,,,
fixation,canvas.Screen,0_5_18_0,2022-07-15T14:14:06.897Z,,,,,,6,493.47299999999814,timeout,,,0.545,,,,,,,,,,,,,,,,,0.515,false,117702.20000000112,117701.698,117208.275,117209.30000000075,117221.585,117715.058,,,
stimulus,canvas.Screen,0_5_18_1,2022-07-15T14:14:09.898Z,,,,,,6,3000.7479999999923,timeout,,0.545,0.545,,,https://raw.githubusercontent.com/carero2/loss-perception/main/png/0.545blue1yellowb%3D1w%3D100v%3D58.png,https://raw.githubusercontent.com/carero2/loss-perception/main/png/0.515blue1yellowb%3D1w%3D100v%3D58.png,,,,,,,,,,,,0.515,0.515,false,120703,120702.453,117701.698,117702.40000000037,117715.058,120715.806,,,
choice,canvas.Screen,0_5_18_2,2022-07-15T14:14:09.901Z,,,,0,,6,NaN,skipped,,,0.545,,0,,,0,,,,,,,15,false,timeout,,,0.515,false,120706.09999999963,120702.453,,120705.90000000037,,120715.806,,115,
timeout,canvas.Screen,0_5_18_3,2022-07-15T14:14:11.898Z,,,,,,6,2000.4780000000028,timeout,,,0.545,,,,,,,,,,,,,,,,,0.515,false,122703.40000000037,122702.936,120702.453,120706.80000000075,120715.806,122716.284,,,
ITI,canvas.Screen,0_5_18_4,2022-07-15T14:14:12.392Z,,,,,,6,493.474000000002,timeout,,,0.545,,,,,,,,,,,,,,,,,0.515,false,123197,123196.398,122702.936,122703.5,122716.284,123209.758,,,
trial,flow.Sequence,0_5_18,2022-07-15T14:14:12.392Z,,,,,,6,5974.812999999995,completion,,,0.545,,,,,,,,,,,,,,,,,0.515,false,123197.40000000037,123196.398,117208.275,117209.20000000112,117221.585,123209.758,,,
fixation,canvas.Screen,0_5_19_0,2022-07-15T14:14:12.885Z,,,,,,9,493.4539999999979,timeout,,,0.485,,,,,,,,,,,,,,,,,0.53,false,123690.30000000075,123689.848,123196.398,123197.70000000112,123209.758,123703.212,,,
stimulus,canvas.Screen,0_5_19_1,2022-07-15T14:14:14.456Z,,,,,,9,1557.5880000007455,response,,0.485,0.485,,,https://raw.githubusercontent.com/carero2/loss-perception/main/png/0.485blue1yellowb%3D1w%3D100v%3D87.png,https://raw.githubusercontent.com/carero2/loss-perception/main/png/0.53blue1yellowb%3D1w%3D100v%3D87.png,,,,,,,,,true,f,keypress(f),0.53,0.53,false,125261.5,125260.80000000075,123689.848,123690.40000000037,123703.212,125290.832,,,
choice,canvas.Screen,0_5_19_2,2022-07-15T14:14:16.473Z,,,,0.485,,9,1999.895000000004,timeout,,,0.485,,0.53,,,3,,,,,,,18,,,,,0.53,false,127278.09999999963,127277.409,125263.148,125263.40000000037,125290.832,127290.727,,118,
timeout,canvas.Screen,0_5_19_3,2022-07-15T14:14:16.474Z,,,,,,9,NaN,skipped,,,0.485,,,,,,,,,,,,,,,,,0.53,false,127279.40000000037,127277.409,,127279.09999999963,,127290.727,,,
ITI,canvas.Screen,0_5_19_4,2022-07-15T14:14:16.966Z,,,,,,9,493.4780000000028,timeout,,,0.485,,,,,,,,,,,,,,,,,0.53,false,127771.40000000037,127770.848,127277.409,127279.5,127290.727,127784.205,,,
trial,flow.Sequence,0_5_19,2022-07-15T14:14:16.966Z,,,,,,9,4561.0899999999965,completion,,,0.485,,,,,,,,,,,,,,,,,0.53,false,127771.59999999963,127770.848,123196.398,123197.59999999963,123209.758,127784.205,,,
fixation,canvas.Screen,0_5_20_0,2022-07-15T14:14:17.460Z,,,,,,6,493.4569999999949,timeout,,,0.515,,,,,,,,,,,,,,,,,0.485,false,128265.09999999963,128264.297,127770.848,127771.59999999963,127784.205,128277.662,,,
stimulus,canvas.Screen,0_5_20_1,2022-07-15T14:14:19.560Z,,,,,,6,2086.238000000376,response,,0.515,0.515,,,https://raw.githubusercontent.com/carero2/loss-perception/main/png/0.515blue1yellowb%3D1w%3D100v%3D20.png,https://raw.githubusercontent.com/carero2/loss-perception/main/png/0.485blue1yellowb%3D1w%3D100v%3D20.png,,,,,,,,,true,j,keypress(j),0.485,0.485,false,130364.70000000112,130363.90000000037,128264.297,128265.20000000112,128277.662,130371.487,,,
choice,canvas.Screen,0_5_20_2,2022-07-15T14:14:21.554Z,,,,0.485,,6,2000.491000000009,timeout,,,0.515,,0.515,,,3,,,,,,,21,,,,,0.485,false,132359.30000000075,132358.646,130357.596,130366.59999999963,130371.487,132371.978,,121,
timeout,canvas.Screen,0_5_20_3,2022-07-15T14:14:21.555Z,,,,,,6,NaN,skipped,,,0.515,,,,,,,,,,,,,,,,,0.485,false,132360.30000000075,132358.646,,132360.20000000112,,132371.978,,,
ITI,canvas.Screen,0_5_20_4,2022-07-15T14:14:22.048Z,,,,,,6,493.46899999998277,timeout,,,0.515,,,,,,,,,,,,,,,,,0.485,false,132852.80000000075,132852.103,132358.646,132360.40000000037,132371.978,132865.447,,,
trial,flow.Sequence,0_5_20,2022-07-15T14:14:22.048Z,,,,,,6,5067.898000000001,completion,,,0.515,,,,,,,,,,,,,,,,,0.485,false,132853.20000000112,132852.103,127770.848,127771.59999999963,127784.205,132865.447,,,
fixation,canvas.Screen,0_5_21_0,2022-07-15T14:14:22.541Z,,,,,,6,493.4520000000193,timeout,,,0.485,,,,,,,,,,,,,,,,,0.455,true,133346,133345.583,132852.103,132853.30000000075,132865.447,133358.899,,,
stimulus,canvas.Screen,0_5_21_1,2022-07-15T14:14:23.554Z,,,,,,6,999.2009999996226,response,,0.455,0.485,,,https://raw.githubusercontent.com/carero2/loss-perception/main/png/0.455blue1yellowb%3D1w%3D100v%3D24.png,https://raw.githubusercontent.com/carero2/loss-perception/main/png/0.485blue1yellowb%3D1w%3D100v%3D24.png,,,,,,,,,true,j,keypress(j),0.485,0.455,true,134358.70000000112,134358.09999999963,133345.583,133346.20000000112,133358.899,134372.478,,,
choice,canvas.Screen,0_5_21_2,2022-07-15T14:14:25.555Z,,,,0.485,,6,2000.494000000006,timeout,,,0.485,,0.455,,,3,,,,,,,24,,,,,0.455,true,136360.09999999963,136359.631,134358.86,134360.70000000112,134372.478,136372.972,,124,
timeout,canvas.Screen,0_5_21_3,2022-07-15T14:14:25.556Z,,,,,,6,NaN,skipped,,,0.485,,,,,,,,,,,,,,,,,0.455,true,136361.09999999963,136359.631,,136361,,136372.972,,,
ITI,canvas.Screen,0_5_21_4,2022-07-15T14:14:26.049Z,,,,,,6,493.4459999999963,timeout,,,0.485,,,,,,,,,,,,,,,,,0.455,true,136853.59999999963,136853.07,136359.631,136361.30000000075,136372.972,136866.418,,,
trial,flow.Sequence,0_5_21,2022-07-15T14:14:26.049Z,,,,,,6,3987.6230000000214,completion,,,0.485,,,,,,,,,,,,,,,,,0.455,true,136853.80000000075,136853.07,132852.103,132853.20000000112,132865.447,136866.418,,,
fixation,canvas.Screen,0_5_22_0,2022-07-15T14:14:26.542Z,,,,,,18,493.4860000000044,timeout,,,0.545,,,,,,,,,,,,,,,,,0.455,true,137347,137346.557,136853.07,136854,136866.418,137359.904,,,
stimulus,canvas.Screen,0_5_22_1,2022-07-15T14:14:27.132Z,,,,,,18,576.0959999999905,response,,0.455,0.545,,,https://raw.githubusercontent.com/carero2/loss-perception/main/png/0.455blue1yellowb%3D1w%3D100v%3D61.png,https://raw.githubusercontent.com/carero2/loss-perception/main/png/0.545blue1yellowb%3D1w%3D100v%3D61.png,,,,,,,,,true,f,keypress(f),0.545,0.455,true,137936.59999999963,137936,137346.557,137347.09999999963,137359.904,137946.692,,,
choice,canvas.Screen,0_5_22_2,2022-07-15T14:14:29.129Z,,,,0.455,,18,2000.5109999999986,timeout,,,0.545,,0.545,,,9,,,,,,,33,,,,,0.455,true,139934.40000000037,139933.837,137933.213,137938.5,137946.692,139947.203,,133,
timeout,canvas.Screen,0_5_22_3,2022-07-15T14:14:29.131Z,,,,,,18,NaN,skipped,,,0.545,,,,,,,,,,,,,,,,,0.455,true,139935.70000000112,139933.837,,139935.5,,139947.203,,,
ITI,canvas.Screen,0_5_22_4,2022-07-15T14:14:29.623Z,,,,,,18,493.44699999998556,timeout,,,0.545,,,,,,,,,,,,,,,,,0.455,true,140427.80000000075,140427.299,139933.837,139935.70000000112,139947.203,140440.65,,,
trial,flow.Sequence,0_5_22,2022-07-15T14:14:29.623Z,,,,,,18,3560.880999999994,completion,,,0.545,,,,,,,,,,,,,,,,,0.455,true,140428.20000000112,140427.299,136853.07,136854,136866.418,140440.65,,,
fixation,canvas.Screen,0_5_23_0,2022-07-15T14:14:30.116Z,,,,,,12,493.41300000000047,timeout,,,0.53,,,,,,,,,,,,,,,,,0.47,true,140921.30000000075,140920.757,140427.299,140428.30000000075,140440.65,140934.063,,,
stimulus,canvas.Screen,0_5_23_1,2022-07-15T14:14:30.761Z,,,,,,12,630.8370000003779,response,,0.47,0.53,,,https://raw.githubusercontent.com/carero2/loss-perception/main/png/0.47blue1yellowb%3D1w%3D100v%3D81.png,https://raw.githubusercontent.com/carero2/loss-perception/main/png/0.53blue1yellowb%3D1w%3D100v%3D81.png,,,,,,,,,true,f,keypress(f),0.53,0.47,true,141565.80000000075,141564.90000000037,140920.757,140921.30000000075,140934.063,141574.252,,,
choice,canvas.Screen,0_5_23_2,2022-07-15T14:14:32.757Z,,,,0.47,,12,2000.5009999999893,timeout,,,0.53,,0.53,,,6,,,,,,,39,,,,,0.47,true,143562,143561.436,141560.742,141567.80000000075,141574.252,143574.753,,139,
timeout,canvas.Screen,0_5_23_3,2022-07-15T14:14:32.758Z,,,,,,12,NaN,skipped,,,0.53,,,,,,,,,,,,,,,,,0.47,true,143563,143561.436,,143562.90000000037,,143574.753,,,
ITI,canvas.Screen,0_5_23_4,2022-07-15T14:14:33.251Z,,,,,,12,493.44899999999325,timeout,,,0.53,,,,,,,,,,,,,,,,,0.47,true,144055.70000000112,144054.839,143561.436,143563,143574.753,144068.202,,,
trial,flow.Sequence,0_5_23,2022-07-15T14:14:33.251Z,,,,,,12,3614.189000000013,completion,,,0.53,,,,,,,,,,,,,,,,,0.47,true,144056,144054.839,140427.299,140428.20000000112,140440.65,144068.202,,,
pratice,flow.Loop,0_5,2022-07-15T14:14:33.251Z,,,,,,,119376.02200000001,completion,,,,,,,,,,,,,,,,,,,,,,144056.20000000112,144054.839,24665.458,24673.099999999627,24678.817,144068.202,,,
show amount,html.Screen,0_6,2022-07-15T14:14:39.417Z,,,,,,,6151.598000000755,response,,,,,,,,,,,,,,,,,Continue,click #Continue,,,,150221.59999999963,150219.80000000075,144054.839,144057.30000000075,144068.202,150229.716,,,
first block,canvas.Screen,0_7,2022-07-15T14:14:41.871Z,,,,,,,2445.484000001132,response,,,,,,,,,,,,,,,,,space,keypress(Space),,,,152676,152675.20000000112,150216.334,150221.70000000112,150229.716,152683.649,,,
fixation,canvas.Screen,0_8_0_0,2022-07-15T14:14:42.359Z,,,,,,4,760.1889999999839,timeout,,,0.51,,,,,,,,,,,,,,,,,0.49,true,153164.20000000112,153163.756,152670.082,152676.09999999963,152683.649,153443.838,,,
stimulus,canvas.Screen,0_8_0_1,2022-07-15T14:14:43.967Z,,,,,,4,1328.0620000003837,response,,0.49,0.51,,,https://raw.githubusercontent.com/carero2/loss-perception/main/png/0.49blue1yellowb%3D1w%3D100v%3D80.png,https://raw.githubusercontent.com/carero2/loss-perception/main/png/0.51blue1yellowb%3D1w%3D100v%3D80.png,,,,,,,,,true,f,keypress(f),0.51,0.49,true,154772.5,154771.90000000037,153163.756,153451.80000000075,153443.838,154790.884,,,
choice,canvas.Screen,0_8_0_2,2022-07-15T14:14:44.973Z,,,,0.49,,4,1000.2339999999967,timeout,,,0.51,,0.51,,,2,2,,,,,,,,,,,0.49,true,155778.30000000075,155777.739,154777.134,154787.30000000075,154790.884,155791.118,102,,
ITI,canvas.Screen,0_8_0_3,2022-07-15T14:14:45.467Z,,,2393,,,4,493.40200000000186,timeout,,,0.51,,,,,,,,,,,,,,,,,0.49,true,156271.90000000037,156271.165,155777.739,155778.40000000037,155791.118,156284.52,,,
trial,flow.Sequence,0_8_0,2022-07-15T14:14:45.467Z,,,,,,4,3587.5160000000033,completion,,,0.51,,,,,,,,,,,,,,,,,0.49,true,156272.20000000112,156271.165,152670.082,152676.09999999963,152683.649,156284.52,,,
fixation,canvas.Screen,0_8_1_0,2022-07-15T14:14:45.960Z,,,,,,6,746.8450000000012,timeout,,,0.485,,,,,,,,,,,,,,,,,0.455,false,156765.20000000112,156764.634,156271.165,156272.40000000037,156284.52,157031.365,,,
stimulus,canvas.Screen,0_8_1_1,2022-07-15T14:14:47.112Z,,,,,,6,884.5350000003818,response,,0.485,0.485,,,https://raw.githubusercontent.com/carero2/loss-perception/main/png/0.485blue1yellowb%3D1w%3D100v%3D54.png,https://raw.githubusercontent.com/carero2/loss-perception/main/png/0.455blue1yellowb%3D1w%3D100v%3D54.png,,,,,,,,,true,j,keypress(j),0.455,0.455,false,157916.80000000075,157915.90000000037,156764.634,157037.80000000075,157031.365,157938.251,,,
choice,canvas.Screen,0_8_1_2,2022-07-15T14:14:48.121Z,,,,0.455,,6,1000.2580000000016,timeout,,,0.485,,0.485,,,9,11,,,,,,,,,,,0.455,false,158925.70000000112,158925.162,157924.68,157931.70000000112,157938.251,158938.509,111,,
ITI,canvas.Screen,0_8_1_3,2022-07-15T14:14:48.614Z,,,2458,,,6,493.48300000000745,timeout,,,0.485,,,,,,,,,,,,,,,,,0.455,false,159419.20000000112,159418.605,158925.162,158925.80000000075,158938.509,159431.992,,,
trial,flow.Sequence,0_8_1,2022-07-15T14:14:48.614Z,,,,,,6,3134.085000000021,completion,,,0.485,,,,,,,,,,,,,,,,,0.455,false,159419.40000000037,159418.605,156271.165,156272.30000000075,156284.52,159431.992,,,
fixation,canvas.Screen,0_8_2_0,2022-07-15T14:14:49.108Z,,,,,,6,493.4189999999944,timeout,,,0.545,,,,,,,,,,,,,,,,,0.515,false,159912.59999999963,159912.085,159418.605,159419.5,159431.992,159925.411,,,
stimulus,canvas.Screen,0_8_2_1,2022-07-15T14:14:49.985Z,,,,,,6,863.5890000000072,response,,0.545,0.545,,,https://raw.githubusercontent.com/carero2/loss-perception/main/png/0.545blue1yellowb%3D1w%3D100v%3D17.png,https://raw.githubusercontent.com/carero2/loss-perception/main/png/0.515blue1yellowb%3D1w%3D100v%3D17.png,,,,,,,,,true,j,keypress(j),0.515,0.515,false,160789.80000000075,160789,159912.085,159926.59999999963,159925.411,160805.646,,,
choice,canvas.Screen,0_8_2_2,2022-07-15T14:14:50.988Z,,,,0.515,,6,1000.2679999999818,timeout,,,0.545,,0.545,,,-3,8,,,,,,,,,,,0.515,false,161793.09999999963,161792.542,160792.058,160803.59999999963,160805.646,161805.914,108,,
ITI,canvas.Screen,0_8_2_3,2022-07-15T14:14:51.481Z,,,2069,,,6,493.41300000000047,timeout,,,0.545,,,,,,,,,,,,,,,,,0.515,false,162286.5,162285.988,161792.542,161793.40000000037,161805.914,162299.327,,,
trial,flow.Sequence,0_8_2,2022-07-15T14:14:51.482Z,,,,,,6,2853.9960000000137,completion,,,0.545,,,,,,,,,,,,,,,,,0.515,false,162286.80000000075,162285.988,159418.605,159419.5,159431.992,162299.327,,,
fixation,canvas.Screen,0_8_3_0,2022-07-15T14:14:51.975Z,,,,,,2,680.1560000000172,timeout,,,0.515,,,,,,,,,,,,,,,,,0.505,false,162780,162779.461,162285.988,162286.90000000037,162299.327,162979.483,,,
stimulus,canvas.Screen,0_8_3_1,2022-07-15T14:14:53.310Z,,,,,,2,1134.8170000007376,response,,0.515,0.515,,,https://raw.githubusercontent.com/carero2/loss-perception/main/png/0.515blue1yellowb%3D1w%3D100v%3D34.png,https://raw.githubusercontent.com/carero2/loss-perception/main/png/0.505blue1yellowb%3D1w%3D100v%3D34.png,,,,,,,,,true,j,keypress(j),0.505,0.505,false,164115.40000000037,164114.30000000075,162779.461,162985.90000000037,162979.483,164139.802,,,
choice,canvas.Screen,0_8_3_2,2022-07-15T14:14:54.323Z,,,,0.505,,2,1000.2309999999998,timeout,,,0.515,,0.515,,,-1,7,,,,,,,,,,,0.505,false,165127.80000000075,165126.673,164126.132,164129.20000000112,164139.802,165140.033,107,,
ITI,canvas.Screen,0_8_3_3,2022-07-15T14:14:54.816Z,,,2050,,,2,493.4340000000084,timeout,,,0.515,,,,,,,,,,,,,,,,,0.505,false,165620.59999999963,165620.137,165126.673,165128,165140.033,165633.467,,,
trial,flow.Sequence,0_8_3,2022-07-15T14:14:54.816Z,,,,,,2,3320.8099999999977,completion,,,0.515,,,,,,,,,,,,,,,,,0.505,false,165620.80000000075,165620.137,162285.988,162286.90000000037,162299.327,165633.467,,,
fixation,canvas.Screen,0_8_4_0,2022-07-15T14:14:55.309Z,,,,,,6,668.5430000000051,timeout,,,0.515,,,,,,,,,,,,,,,,,0.485,false,166114,166113.575,165620.137,165620.90000000037,165633.467,166302.01,,,
stimulus,canvas.Screen,0_8_4_1,2022-07-15T14:14:56.792Z,,,,,,6,1293.7900000007357,response,,0.515,0.515,,,https://raw.githubusercontent.com/carero2/loss-perception/main/png/0.515blue1yellowb%3D1w%3D100v%3D54.png,https://raw.githubusercontent.com/carero2/loss-perception/main/png/0.485blue1yellowb%3D1w%3D100v%3D54.png,,,,,,,,,true,j,keypress(j),0.485,0.485,false,167596.59999999963,167595.80000000075,166113.575,166309.30000000075,166302.01,167620.647,,,
choice,canvas.Screen,0_8_4_2,2022-07-15T14:14:57.803Z,,,,0.485,,6,1000.2280000000028,timeout,,,0.515,,0.515,,,3,10,,,,,,,,,,,0.485,false,168608.20000000112,168607.553,167606.958,167611.90000000037,167620.647,168620.875,110,,
ITI,canvas.Screen,0_8_4_3,2022-07-15T14:14:58.296Z,,,2027,,,6,493.5020000000077,timeout,,,0.515,,,,,,,,,,,,,,,,,0.485,false,169101.5,169100.978,168607.553,168608.40000000037,168620.875,169114.377,,,
trial,flow.Sequence,0_8_4,2022-07-15T14:14:58.297Z,,,,,,6,3467.5109999999986,completion,,,0.515,,,,,,,,,,,,,,,,,0.485,false,169101.80000000075,169100.978,165620.137,165620.90000000037,165633.467,169114.377,,,
fixation,canvas.Screen,0_8_5_0,2022-07-15T14:14:58.790Z,,,,,,4,760.164999999979,timeout,,,0.49,,,,,,,,,,,,,,,,,0.47,true,169594.90000000037,169594.446,169100.978,169101.90000000037,169114.377,169874.542,,,
stimulus,canvas.Screen,0_8_5_1,2022-07-15T14:14:59.801Z,,,,,,4,731.2580000007583,response,,0.47,0.49,,,https://raw.githubusercontent.com/carero2/loss-perception/main/png/0.47blue1yellowb%3D1w%3D100v%3D36.png,https://raw.githubusercontent.com/carero2/loss-perception/main/png/0.49blue1yellowb%3D1w%3D100v%3D36.png,,,,,,,,,true,f,keypress(f),0.49,0.47,true,170606.59999999963,170605.80000000075,169594.446,169882.5,169874.542,170650.743,,,
choice,canvas.Screen,0_8_5_2,2022-07-15T14:15:00.830Z,,,,0.47,,4,997.5510000000068,timeout,,,0.49,,0.49,,,6,16,,,,,,,,,,,0.47,true,171635.5,171634.936,170607.86,170620.90000000037,170650.743,171648.294,116,,
ITI,canvas.Screen,0_8_5_3,2022-07-15T14:15:01.324Z,,,2177,,,4,493.4649999999965,timeout,,,0.49,,,,,,,,,,,,,,,,,0.47,true,172128.90000000037,172128.402,171634.936,171635.70000000112,171648.294,172141.759,,,
trial,flow.Sequence,0_8_5,2022-07-15T14:15:01.324Z,,,,,,4,3014.024999999994,completion,,,0.49,,,,,,,,,,,,,,,,,0.47,true,172129.20000000112,172128.402,169100.978,169101.90000000037,169114.377,172141.759,,,
fixation,canvas.Screen,0_8_6_0,2022-07-15T14:15:01.817Z,,,,,,2,706.8300000000163,timeout,,,0.505,,,,,,,,,,,,,,,,,0.495,false,172622.40000000037,172621.841,172128.402,172129.20000000112,172141.759,172848.589,,,
stimulus,canvas.Screen,0_8_6_1,2022-07-15T14:15:03.312Z,,,,,,2,1267.5109999996203,response,,0.505,0.505,,,https://raw.githubusercontent.com/carero2/loss-perception/main/png/0.505blue1yellowb%3D1w%3D100v%3D77.png,https://raw.githubusercontent.com/carero2/loss-perception/main/png/0.495blue1yellowb%3D1w%3D100v%3D77.png,,,,,,,,,true,j,keypress(j),0.495,0.495,false,174117.40000000037,174116.09999999963,172621.841,172855.20000000112,172848.589,174142.257,,,
choice,canvas.Screen,0_8_6_2,2022-07-15T14:15:04.325Z,,,,0.495,,2,1000.237999999983,timeout,,,0.505,,0.505,,,1,17,,,,,,,,,,,0.495,false,175129.59999999963,175129.121,174128.553,174131.80000000075,174142.257,175142.495,117,,
ITI,canvas.Screen,0_8_6_3,2022-07-15T14:15:04.818Z,,,2106,,,2,493.42399999999907,timeout,,,0.505,,,,,,,,,,,,,,,,,0.495,false,175623.09999999963,175622.594,175129.121,175129.80000000075,175142.495,175635.919,,,
trial,flow.Sequence,0_8_6,2022-07-15T14:15:04.818Z,,,,,,2,3480.835000000021,completion,,,0.505,,,,,,,,,,,,,,,,,0.495,false,175623.30000000075,175622.594,172128.402,172129.20000000112,172141.759,175635.919,,,
fixation,canvas.Screen,0_8_7_0,2022-07-15T14:15:05.312Z,,,,,,2,746.8470000000088,timeout,,,0.495,,,,,,,,,,,,,,,,,0.485,true,176116.70000000112,176116.038,175622.594,175623.40000000037,175635.919,176382.766,,,
stimulus,canvas.Screen,0_8_7_1,2022-07-15T14:15:06.460Z,,,,,,2,881.2339999999967,response,,0.485,0.495,,,https://raw.githubusercontent.com/carero2/loss-perception/main/png/0.485blue1yellowb%3D1w%3D100v%3D36.png,https://raw.githubusercontent.com/carero2/loss-perception/main/png/0.495blue1yellowb%3D1w%3D100v%3D36.png,,,,,,,,,true,f,keypress(f),0.495,0.485,true,177265.40000000037,177264,176116.038,176390.09999999963,176382.766,177289.679,,,
choice,canvas.Screen,0_8_7_2,2022-07-15T14:15:07.472Z,,,,0.485,,2,1000.2300000000105,timeout,,,0.495,,0.495,,,3,20,,,,,,,,,,,0.485,true,178277.5,178276.58,177276.099,177280.09999999963,177289.679,178289.909,120,,
ITI,canvas.Screen,0_8_7_3,2022-07-15T14:15:07.965Z,,,2557,,,2,493.4649999999965,timeout,,,0.495,,,,,,,,,,,,,,,,,0.485,true,178770.5,178770.03,178276.58,178277.70000000112,178289.909,178783.374,,,
trial,flow.Sequence,0_8_7,2022-07-15T14:15:07.966Z,,,,,,2,3134.1110000000044,completion,,,0.495,,,,,,,,,,,,,,,,,0.485,true,178770.70000000112,178770.03,175622.594,175623.40000000037,175635.919,178783.374,,,
fixation,canvas.Screen,0_8_8_0,2022-07-15T14:15:08.459Z,,,,,,4,746.8509999999951,timeout,,,0.53,,,,,,,,,,,,,,,,,0.51,false,179264.09999999963,179263.492,178770.03,178770.80000000075,178783.374,179530.225,,,
stimulus,canvas.Screen,0_8_8_1,2022-07-15T14:15:09.672Z,,,,,,4,945.7749999999942,response,,0.53,0.53,,,https://raw.githubusercontent.com/carero2/loss-perception/main/png/0.53blue1yellowb%3D1w%3D100v%3D41.png,https://raw.githubusercontent.com/carero2/loss-perception/main/png/0.51blue1yellowb%3D1w%3D100v%3D41.png,,,,,,,,,true,j,keypress(j),0.51,0.51,false,180477,180476,179263.492,179537.59999999963,179530.225,180503.791,,,
choice,canvas.Screen,0_8_8_2,2022-07-15T14:15:10.686Z,,,,0.51,,4,1000.2380000000121,timeout,,,0.53,,0.53,,,-2,18,,,,,,,,,,,0.51,false,181491.20000000112,181490.699,180490.211,180491,180503.791,181504.029,118,,
ITI,canvas.Screen,0_8_8_3,2022-07-15T14:15:11.180Z,,,2120,,,4,493.497000000003,timeout,,,0.53,,,,,,,,,,,,,,,,,0.51,false,181984.90000000037,181984.135,181490.699,181491.30000000075,181504.029,181997.526,,,
trial,flow.Sequence,0_8_8,2022-07-15T14:15:11.180Z,,,,,,4,3200.7609999999986,completion,,,0.53,,,,,,,,,,,,,,,,,0.51,false,181985.20000000112,181984.135,178770.03,178770.80000000075,178783.374,181997.526,,,
fixation,canvas.Screen,0_8_9_0,2022-07-15T14:15:11.673Z,,,,,,4,693.4959999999846,timeout,,,0.53,,,,,,,,,,,,,,,,,0.51,true,182478.09999999963,182477.621,181984.135,181985.30000000075,181997.526,182691.022,,,
stimulus,canvas.Screen,0_8_9_1,2022-07-15T14:15:13.024Z,,,,,,4,1137.0779999996303,response,,0.51,0.53,,,https://raw.githubusercontent.com/carero2/loss-perception/main/png/0.51blue1yellowb%3D1w%3D100v%3D30.png,https://raw.githubusercontent.com/carero2/loss-perception/main/png/0.53blue1yellowb%3D1w%3D100v%3D30.png,,,,,,,,,true,f,keypress(f),0.53,0.51,true,183828.90000000037,183828.09999999963,182477.621,182697.40000000037,182691.022,183851.334,,,
choice,canvas.Screen,0_8_9_2,2022-07-15T14:15:14.034Z,,,,0.51,,4,1000.1849999999977,timeout,,,0.53,,0.53,,,-2,16,,,,,,,,,,,0.51,true,184838.80000000075,184838.183,183837.647,183845.90000000037,183851.334,184851.519,116,,
ITI,canvas.Screen,0_8_9_3,2022-07-15T14:15:14.527Z,,,2540,,,4,493.46199999999953,timeout,,,0.53,,,,,,,,,,,,,,,,,0.51,true,185332.09999999963,185331.632,184838.183,184839,184851.519,185344.981,,,
trial,flow.Sequence,0_8_9,2022-07-15T14:15:14.527Z,,,,,,4,3334.1059999999998,completion,,,0.53,,,,,,,,,,,,,,,,,0.51,true,185332.40000000037,185331.632,181984.135,181985.30000000075,181997.526,185344.981,,,
fixation,canvas.Screen,0_8_10_0,2022-07-15T14:15:15.020Z,,,,,,2,680.1650000000081,timeout,,,0.505,,,,,,,,,,,,,,,,,0.495,true,185825.59999999963,185825.084,185331.632,185332.5,185344.981,186025.146,,,
stimulus,canvas.Screen,0_8_10_1,2022-07-15T14:15:16.362Z,,,,,,2,1140.9539999996196,response,,0.495,0.505,,,https://raw.githubusercontent.com/carero2/loss-perception/main/png/0.495blue1yellowb%3D1w%3D100v%3D36.png,https://raw.githubusercontent.com/carero2/loss-perception/main/png/0.505blue1yellowb%3D1w%3D100v%3D36.png,,,,,,,,,true,j,keypress(j),0.505,0.495,true,187166.80000000075,187166.09999999963,185825.084,186031.90000000037,186025.146,187185.417,,,
choice,canvas.Screen,0_8_10_2,2022-07-15T14:15:17.368Z,,,,0.505,,2,1000.25900000002,timeout,,,0.505,,0.495,,,-1,15,,,,,,,,,,,0.495,true,188173,188172.324,187171.775,187181.40000000037,187185.417,188185.676,115,,
ITI,canvas.Screen,0_8_10_3,2022-07-15T14:15:17.861Z,,,2099,,,2,493.4560000000056,timeout,,,0.505,,,,,,,,,,,,,,,,,0.495,true,188666.20000000112,188665.794,188172.324,188173.20000000112,188185.676,188679.132,,,
trial,flow.Sequence,0_8_10,2022-07-15T14:15:17.861Z,,,,,,2,3320.8129999999946,completion,,,0.505,,,,,,,,,,,,,,,,,0.495,true,188666.5,188665.794,185331.632,185332.5,185344.981,188679.132,,,
fixation,canvas.Screen,0_8_11_0,2022-07-15T14:15:18.355Z,,,,,,2,680.1659999999974,timeout,,,0.515,,,,,,,,,,,,,,,,,0.505,false,189159.90000000037,189159.246,188665.794,188666.59999999963,188679.132,189359.298,,,
stimulus,canvas.Screen,0_8_11_1,2022-07-15T14:15:19.307Z,,,,,,2,752.6020000003628,response,,0.515,0.515,,,https://raw.githubusercontent.com/carero2/loss-perception/main/png/0.515blue1yellowb%3D1w%3D100v%3D43.png,https://raw.githubusercontent.com/carero2/loss-perception/main/png/0.505blue1yellowb%3D1w%3D100v%3D43.png,,,,,,,,,true,j,keypress(j),0.505,0.505,false,190112.5,190111.90000000037,189159.246,189366.09999999963,189359.298,190132.82,,,
choice,canvas.Screen,0_8_11_2,2022-07-15T14:15:20.315Z,,,,0.505,,2,1000.2330000000075,timeout,,,0.515,,0.515,,,-1,14,,,,,,,,,,,0.505,false,191120.20000000112,191119.722,190119.271,190126.90000000037,190132.82,191133.053,114,,
ITI,canvas.Screen,0_8_11_3,2022-07-15T14:15:20.809Z,,,2732,,,2,493.48299999997835,timeout,,,0.515,,,,,,,,,,,,,,,,,0.505,false,191614.20000000112,191613.205,191119.722,191120.30000000075,191133.053,191626.536,,,
trial,flow.Sequence,0_8_11,2022-07-15T14:15:20.809Z,,,,,,2,2934.072999999975,completion,,,0.515,,,,,,,,,,,,,,,,,0.505,false,191614.40000000037,191613.205,188665.794,188666.59999999963,188679.132,191626.536,,,
fixation,canvas.Screen,0_8_12_0,2022-07-15T14:15:21.302Z,,,,,,6,693.4759999999951,timeout,,,0.515,,,,,,,,,,,,,,,,,0.485,false,192107.09999999963,192106.627,191613.205,191615.09999999963,191626.536,192320.012,,,
stimulus,canvas.Screen,0_8_12_1,2022-07-15T14:15:22.248Z,,,,,,6,732.7880000007572,response,,0.515,0.515,,,https://raw.githubusercontent.com/carero2/loss-perception/main/png/0.515blue1yellowb%3D1w%3D100v%3D31.png,https://raw.githubusercontent.com/carero2/loss-perception/main/png/0.485blue1yellowb%3D1w%3D100v%3D31.png,,,,,,,,,true,j,keypress(j),0.485,0.485,false,193053.59999999963,193052.80000000075,192106.627,192326.5,192320.012,193080.203,,,
choice,canvas.Screen,0_8_12_2,2022-07-15T14:15:23.262Z,,,,0.485,,6,1000.2599999999802,timeout,,,0.515,,0.515,,,3,17,,,,,,,,,,,0.485,false,194067.59999999963,194067.096,193066.666,193067.90000000037,193080.203,194080.463,117,,
ITI,canvas.Screen,0_8_12_3,2022-07-15T14:15:23.756Z,,,2370,,,6,493.4349999999977,timeout,,,0.515,,,,,,,,,,,,,,,,,0.485,false,194561.09999999963,194560.56,194067.096,194067.90000000037,194080.463,194573.898,,,
trial,flow.Sequence,0_8_12,2022-07-15T14:15:23.756Z,,,,,,6,2934.024000000005,completion,,,0.515,,,,,,,,,,,,,,,,,0.485,false,194561.30000000075,194560.56,191613.205,191614.70000000112,191626.536,194573.898,,,
fixation,canvas.Screen,0_8_13_0,2022-07-15T14:15:24.249Z,,,,,,6,746.8540000000212,timeout,,,0.545,,,,,,,,,,,,,,,,,0.515,true,195054.59999999963,195054.021,194560.56,194561.30000000075,194573.898,195320.752,,,
stimulus,canvas.Screen,0_8_13_1,2022-07-15T14:15:25.153Z,,,,,,6,637.1480000003648,response,,0.515,0.545,,,https://raw.githubusercontent.com/carero2/loss-perception/main/png/0.515blue1yellowb%3D1w%3D100v%3D15.png,https://raw.githubusercontent.com/carero2/loss-perception/main/png/0.545blue1yellowb%3D1w%3D100v%3D15.png,,,,,,,,,true,f,keypress(f),0.545,0.515,true,195958.5,195957.90000000037,195054.021,195328.40000000037,195320.752,195974.3,,,
choice,canvas.Screen,0_8_13_2,2022-07-15T14:15:26.156Z,,,,0.515,,6,1000.2030000000086,timeout,,,0.545,,0.545,,,-3,14,,,,,,,,,,,0.515,true,196961.70000000112,196961.151,195960.742,195972.90000000037,195974.3,196974.503,114,,
ITI,canvas.Screen,0_8_13_3,2022-07-15T14:15:26.650Z,,,2535,,,6,493.44200000001,timeout,,,0.545,,,,,,,,,,,,,,,,,0.515,true,197455.40000000037,197454.61,196961.151,196961.80000000075,196974.503,197467.945,,,
trial,flow.Sequence,0_8_13,2022-07-15T14:15:26.650Z,,,,,,6,2880.7119999999995,completion,,,0.545,,,,,,,,,,,,,,,,,0.515,true,197455.59999999963,197454.61,194560.56,194561.30000000075,194573.898,197467.945,,,
fixation,canvas.Screen,0_8_14_0,2022-07-15T14:15:27.143Z,,,,,,4,666.8439999999828,timeout,,,0.49,,,,,,,,,,,,,,,,,0.47,false,197948.5,197948.091,197454.61,197455.70000000112,197467.945,198134.789,,,
stimulus,canvas.Screen,0_8_14_1,2022-07-15T14:15:28.036Z,,,,,,4,705.2110000000102,response,,0.49,0.49,,,https://raw.githubusercontent.com/carero2/loss-perception/main/png/0.49blue1yellowb%3D1w%3D100v%3D70.png,https://raw.githubusercontent.com/carero2/loss-perception/main/png/0.47blue1yellowb%3D1w%3D100v%3D70.png,,,,,,,,,true,f,keypress(f),0.47,0.47,false,198840.80000000075,198840,197948.091,198141.5,198134.789,198868.273,,,
choice,canvas.Screen,0_8_14_2,2022-07-15T14:15:29.051Z,,,,0.49,,4,1000.2520000000077,timeout,,,0.49,,0.47,,,2,16,,,,,,,,,,,0.47,false,199856,199855.204,198854.774,198855.90000000037,198868.273,199868.525,116,,
ITI,canvas.Screen,0_8_14_3,2022-07-15T14:15:29.544Z,,,2460,,,4,493.4679999999935,timeout,,,0.49,,,,,,,,,,,,,,,,,0.47,false,200349.20000000112,200348.649,199855.204,199856.20000000112,199868.525,200361.993,,,
trial,flow.Sequence,0_8_14,2022-07-15T14:15:29.544Z,,,,,,4,2880.703999999998,completion,,,0.49,,,,,,,,,,,,,,,,,0.47,false,200349.40000000037,200348.649,197454.61,197455.70000000112,197467.945,200361.993,,,
fixation,canvas.Screen,0_8_15_0,2022-07-15T14:15:30.038Z,,,,,,4,986.8890000000247,timeout,,,0.51,,,,,,,,,,,,,,,,,0.49,true,200842.80000000075,200842.098,200348.649,200349.5,200361.993,201348.882,,,
stimulus,canvas.Screen,0_8_15_1,2022-07-15T14:15:31.551Z,,,,,,4,1007.0180000003602,response,,0.49,0.51,,,https://raw.githubusercontent.com/carero2/loss-perception/main/png/0.49blue1yellowb%3D1w%3D100v%3D30.png,https://raw.githubusercontent.com/carero2/loss-perception/main/png/0.51blue1yellowb%3D1w%3D100v%3D30.png,,,,,,,,,true,f,keypress(f),0.51,0.49,true,202356.59999999963,202355.90000000037,200842.098,201356.30000000075,201348.882,202375.821,,,
choice,canvas.Screen,0_8_15_2,2022-07-15T14:15:32.558Z,,,,0.49,,4,1000.3000000000175,timeout,,,0.51,,0.51,,,2,18,,,,,,,,,,,0.49,true,203363.20000000112,203362.716,202362.209,202371.5,202375.821,203376.121,118,,
ITI,canvas.Screen,0_8_15_3,2022-07-15T14:15:33.052Z,,,2358,,,4,493.40399999998044,timeout,,,0.51,,,,,,,,,,,,,,,,,0.49,true,203856.80000000075,203856.182,203362.716,203363.40000000037,203376.121,203869.525,,,
trial,flow.Sequence,0_8_15,2022-07-15T14:15:33.052Z,,,,,,4,3494.189000000013,completion,,,0.51,,,,,,,,,,,,,,,,,0.49,true,203857.09999999963,203856.182,200348.649,200349.5,200361.993,203869.525,,,
fixation,canvas.Screen,0_8_16_0,2022-07-15T14:15:33.545Z,,,,,,2,693.4860000000044,timeout,,,0.495,,,,,,,,,,,,,,,,,0.485,true,204350.09999999963,204349.637,203856.182,203857.20000000112,203869.525,204563.011,,,
stimulus,canvas.Screen,0_8_16_1,2022-07-15T14:15:34.634Z,,,,,,2,875.7890000007465,response,,0.485,0.495,,,https://raw.githubusercontent.com/carero2/loss-perception/main/png/0.485blue1yellowb%3D1w%3D100v%3D61.png,https://raw.githubusercontent.com/carero2/loss-perception/main/png/0.495blue1yellowb%3D1w%3D100v%3D61.png,,,,,,,,,true,j,keypress(j),0.495,0.485,true,205439.5,205438.80000000075,204349.637,204569.80000000075,204563.011,205456.575,,,
choice,canvas.Screen,0_8_16_2,2022-07-15T14:15:35.639Z,,,,0.495,,2,1000.2629999999772,timeout,,,0.495,,0.485,,,1,19,,,,,,,,,,,0.485,true,206444,206443.478,205443.005,205454,205456.575,206456.838,119,,
ITI,canvas.Screen,0_8_16_3,2022-07-15T14:15:36.132Z,,,2173,,,2,493.4320000000007,timeout,,,0.495,,,,,,,,,,,,,,,,,0.485,true,206937.40000000037,206936.926,206443.478,206444.20000000112,206456.838,206950.27,,,
trial,flow.Sequence,0_8_16,2022-07-15T14:15:36.132Z,,,,,,2,3067.4010000000126,completion,,,0.495,,,,,,,,,,,,,,,,,0.485,true,206937.70000000112,206936.926,203856.182,203857.20000000112,203869.525,206950.27,,,
fixation,canvas.Screen,0_8_17_0,2022-07-15T14:15:36.626Z,,,,,,6,693.5810000000056,timeout,,,0.485,,,,,,,,,,,,,,,,,0.455,false,207430.90000000037,207430.369,206936.926,206937.80000000075,206950.27,207643.851,,,
stimulus,canvas.Screen,0_8_17_1,2022-07-15T14:15:37.622Z,,,,,,6,783.1490000000049,response,,0.485,0.485,,,https://raw.githubusercontent.com/carero2/loss-perception/main/png/0.485blue1yellowb%3D1w%3D100v%3D32.png,https://raw.githubusercontent.com/carero2/loss-perception/main/png/0.455blue1yellowb%3D1w%3D100v%3D32.png,,,,,,,,,true,j,keypress(j),0.455,0.455,false,208427.59999999963,208427,207430.369,207651,207643.851,208443.971,,,
choice,canvas.Screen,0_8_17_2,2022-07-15T14:15:38.626Z,,,,0.455,,6,1000.2580000000016,timeout,,,0.485,,0.485,,,9,28,,,,,,,,,,,0.455,false,209431.5,209430.862,208430.425,208441.70000000112,208443.971,209444.229,128,,
ITI,canvas.Screen,0_8_17_3,2022-07-15T14:15:39.120Z,,,2623,,,6,493.4320000000007,timeout,,,0.485,,,,,,,,,,,,,,,,,0.455,false,209924.90000000037,209924.339,209430.862,209431.70000000112,209444.229,209937.661,,,
trial,flow.Sequence,0_8_17,2022-07-15T14:15:39.120Z,,,,,,6,2974.0690000000177,completion,,,0.485,,,,,,,,,,,,,,,,,0.455,false,209925.20000000112,209924.339,206936.926,206937.80000000075,206950.27,209937.661,,,
fixation,canvas.Screen,0_8_18_0,2022-07-15T14:15:39.613Z,,,,,,2,706.8589999999967,timeout,,,0.505,,,,,,,,,,,,,,,,,0.495,false,210418.40000000037,210417.773,209924.339,209925.40000000037,209937.661,210644.52,,,
stimulus,canvas.Screen,0_8_18_1,2022-07-15T14:15:40.702Z,,,,,,2,862.4800000000105,response,,0.505,0.505,,,https://raw.githubusercontent.com/carero2/loss-perception/main/png/0.505blue1yellowb%3D1w%3D100v%3D94.png,https://raw.githubusercontent.com/carero2/loss-perception/main/png/0.495blue1yellowb%3D1w%3D100v%3D94.png,,,,,,,,,true,j,keypress(j),0.495,0.495,false,211507.70000000112,211507,210417.773,210652.20000000112,210644.52,211546.563,,,
choice,canvas.Screen,0_8_18_2,2022-07-15T14:15:41.734Z,,,,0.495,,2,1005.0629999999946,timeout,,,0.505,,0.505,,,1,29,,,,,,,,,,,0.495,false,212538.80000000075,212538.309,211511.296,211524,211546.563,212551.626,129,,
ITI,canvas.Screen,0_8_18_3,2022-07-15T14:15:42.227Z,,,2301,,,2,493.502999999997,timeout,,,0.505,,,,,,,,,,,,,,,,,0.495,false,213032.20000000112,213031.736,212538.309,212539,212551.626,213045.129,,,
trial,flow.Sequence,0_8_18,2022-07-15T14:15:42.227Z,,,,,,2,3094.0750000000116,completion,,,0.505,,,,,,,,,,,,,,,,,0.495,false,213032.40000000037,213031.736,209924.339,209925.30000000075,209937.661,213045.129,,,
fixation,canvas.Screen,0_8_19_0,2022-07-15T14:15:42.721Z,,,,,,4,680.1270000000077,timeout,,,0.51,,,,,,,,,,,,,,,,,0.49,true,213525.70000000112,213525.227,213031.736,213032.59999999963,213045.129,213725.256,,,
stimulus,canvas.Screen,0_8_19_1,2022-07-15T14:15:43.748Z,,,,,,4,826.6440000003786,response,,0.49,0.51,,,https://raw.githubusercontent.com/carero2/loss-perception/main/png/0.49blue1yellowb%3D1w%3D100v%3D65.png,https://raw.githubusercontent.com/carero2/loss-perception/main/png/0.51blue1yellowb%3D1w%3D100v%3D65.png,,,,,,,,,true,j,keypress(j),0.51,0.49,true,214553.09999999963,214551.90000000037,213525.227,213732.5,213725.256,214578.852,,,
choice,canvas.Screen,0_8_19_2,2022-07-15T14:15:44.761Z,,,,0.51,,4,1000.2249999999767,timeout,,,0.51,,0.49,,,-2,27,,,,,,,,,,,0.49,true,215566.30000000075,215565.694,214565.25,214567.30000000075,214578.852,215579.077,127,,
ITI,canvas.Screen,0_8_19_3,2022-07-15T14:15:45.254Z,,,2574,,,4,493.4410000000207,timeout,,,0.51,,,,,,,,,,,,,,,,,0.49,true,216059.70000000112,216059.173,215565.694,215566.40000000037,215579.077,216072.518,,,
trial,flow.Sequence,0_8_19,2022-07-15T14:15:45.255Z,,,,,,4,3014.0440000000235,completion,,,0.51,,,,,,,,,,,,,,,,,0.49,true,216059.90000000037,216059.173,213031.736,213032.5,213045.129,216072.518,,,
fixation,canvas.Screen,0_8_20_0,2022-07-15T14:15:45.748Z,,,,,,6,680.1449999999895,timeout,,,0.515,,,,,,,,,,,,,,,,,0.485,true,216553.5,216552.613,216059.173,216060,216072.518,216752.663,,,
stimulus,canvas.Screen,0_8_20_1,2022-07-15T14:15:46.857Z,,,,,,6,909.2370000003721,response,,0.485,0.515,,,https://raw.githubusercontent.com/carero2/loss-perception/main/png/0.485blue1yellowb%3D1w%3D100v%3D10.png,https://raw.githubusercontent.com/carero2/loss-perception/main/png/0.515blue1yellowb%3D1w%3D100v%3D10.png,,,,,,,,,true,j,keypress(j),0.515,0.485,true,217662.59999999963,217661.90000000037,216552.613,216759.09999999963,216752.663,217686.241,,,
choice,canvas.Screen,0_8_20_2,2022-07-15T14:15:47.868Z,,,,0.515,,6,1000.2269999999844,timeout,,,0.515,,0.485,,,-3,24,,,,,,,,,,,0.485,true,218673.70000000112,218673.132,217672.664,217677,217686.241,218686.468,124,,
ITI,canvas.Screen,0_8_20_3,2022-07-15T14:15:48.362Z,,,2652,,,6,493.4630000000179,timeout,,,0.515,,,,,,,,,,,,,,,,,0.485,true,219167.20000000112,219166.574,218673.132,218673.80000000075,218686.468,219179.931,,,
trial,flow.Sequence,0_8_20,2022-07-15T14:15:48.362Z,,,,,,6,3094.0559999999823,completion,,,0.515,,,,,,,,,,,,,,,,,0.485,true,219167.59999999963,219166.574,216059.173,216060,216072.518,219179.931,,,
fixation,canvas.Screen,0_8_21_0,2022-07-15T14:15:48.855Z,,,,,,4,693.4949999999953,timeout,,,0.53,,,,,,,,,,,,,,,,,0.51,true,219660.59999999963,219660.064,219166.574,219167.59999999963,219179.931,219873.426,,,
stimulus,canvas.Screen,0_8_21_1,2022-07-15T14:15:50.235Z,,,,,,4,1166.4740000003658,response,,0.51,0.53,,,https://raw.githubusercontent.com/carero2/loss-perception/main/png/0.51blue1yellowb%3D1w%3D100v%3D37.png,https://raw.githubusercontent.com/carero2/loss-perception/main/png/0.53blue1yellowb%3D1w%3D100v%3D37.png,,,,,,,,,true,f,keypress(f),0.53,0.51,true,221040.5,221039.90000000037,219660.064,219880.30000000075,219873.426,221060.384,,,
choice,canvas.Screen,0_8_21_2,2022-07-15T14:15:51.243Z,,,,0.51,,4,1000.2700000000186,timeout,,,0.53,,0.53,,,-2,22,,,,,,,,,,,0.51,true,222048.09999999963,222047.307,221046.752,221054.59999999963,221060.384,222060.654,122,,
ITI,canvas.Screen,0_8_21_3,2022-07-15T14:15:51.736Z,,,2076,,,4,493.43699999997625,timeout,,,0.53,,,,,,,,,,,,,,,,,0.51,true,222541.20000000112,222540.743,222047.307,222048.40000000037,222060.654,222554.091,,,
trial,flow.Sequence,0_8_21,2022-07-15T14:15:51.736Z,,,,,,4,3360.8119999999763,completion,,,0.53,,,,,,,,,,,,,,,,,0.51,true,222541.5,222540.743,219166.574,219167.59999999963,219179.931,222554.091,,,
fixation,canvas.Screen,0_8_22_0,2022-07-15T14:15:52.230Z,,,,,,2,666.820000000007,timeout,,,0.515,,,,,,,,,,,,,,,,,0.505,true,223034.90000000037,223034.19,222540.743,222541.5,222554.091,223220.911,,,
stimulus,canvas.Screen,0_8_22_1,2022-07-15T14:15:53.185Z,,,,,,2,769.0890000000072,response,,0.505,0.515,,,https://raw.githubusercontent.com/carero2/loss-perception/main/png/0.505blue1yellowb%3D1w%3D100v%3D36.png,https://raw.githubusercontent.com/carero2/loss-perception/main/png/0.515blue1yellowb%3D1w%3D100v%3D36.png,,,,,,,,,true,j,keypress(j),0.515,0.505,true,223990.59999999963,223990,223034.19,223228.5,223220.911,224007.813,,,
choice,canvas.Screen,0_8_22_2,2022-07-15T14:15:54.190Z,,,,0.515,,2,1000.2110000000102,timeout,,,0.515,,0.505,,,-3,19,,,,,,,,,,,0.505,true,224995.20000000112,224994.681,223994.253,224005.40000000037,224007.813,225008.024,119,,
ITI,canvas.Screen,0_8_22_3,2022-07-15T14:15:54.684Z,,,2330,,,2,493.487999999983,timeout,,,0.515,,,,,,,,,,,,,,,,,0.505,true,225488.90000000037,225488.123,224994.681,224995.30000000075,225008.024,225501.512,,,
trial,flow.Sequence,0_8_22,2022-07-15T14:15:54.684Z,,,,,,2,2934.0320000000065,completion,,,0.515,,,,,,,,,,,,,,,,,0.505,true,225489.09999999963,225488.123,222540.743,222541.5,222554.091,225501.512,,,
fixation,canvas.Screen,0_8_23_0,2022-07-15T14:15:55.177Z,,,,,,6,693.4650000000256,timeout,,,0.485,,,,,,,,,,,,,,,,,0.455,false,225982.09999999963,225981.589,225488.123,225489.20000000112,225501.512,226194.977,,,
stimulus,canvas.Screen,0_8_23_1,2022-07-15T14:15:56.069Z,,,,,,6,678.8230000007316,response,,0.485,0.485,,,https://raw.githubusercontent.com/carero2/loss-perception/main/png/0.485blue1yellowb%3D1w%3D100v%3D73.png,https://raw.githubusercontent.com/carero2/loss-perception/main/png/0.455blue1yellowb%3D1w%3D100v%3D73.png,,,,,,,,,true,j,keypress(j),0.455,0.455,false,226874.5,226873.80000000075,225981.589,226201.5,226194.977,226901.806,,,
choice,canvas.Screen,0_8_23_2,2022-07-15T14:15:57.084Z,,,,0.455,,6,1000.2960000000021,timeout,,,0.485,,0.485,,,9,28,,,,,,,,,,,0.455,false,227889.5,227888.75,226888.29,226889.30000000075,226901.806,227902.102,128,,
ITI,canvas.Screen,0_8_23_3,2022-07-15T14:15:57.578Z,,,2052,,,6,493.43699999997625,timeout,,,0.485,,,,,,,,,,,,,,,,,0.455,false,228382.90000000037,228382.193,227888.75,227889.80000000075,227902.102,228395.539,,,
trial,flow.Sequence,0_8_23,2022-07-15T14:15:57.578Z,,,,,,6,2880.6810000000114,completion,,,0.485,,,,,,,,,,,,,,,,,0.455,false,228383.20000000112,228382.193,225488.123,225489.20000000112,225501.512,228395.539,,,
fixation,canvas.Screen,0_8_24_0,2022-07-15T14:15:58.071Z,,,,,,4,720.1410000000033,timeout,,,0.49,,,,,,,,,,,,,,,,,0.47,true,228876.5,228875.638,228382.193,228383.30000000075,228395.539,229115.68,,,
stimulus,canvas.Screen,0_8_24_1,2022-07-15T14:15:59.470Z,,,,,,4,1159.2200000003795,response,,0.47,0.49,,,https://raw.githubusercontent.com/carero2/loss-perception/main/png/0.47blue1yellowb%3D1w%3D100v%3D100.png,https://raw.githubusercontent.com/carero2/loss-perception/main/png/0.49blue1yellowb%3D1w%3D100v%3D100.png,,,,,,,,,true,f,keypress(f),0.49,0.47,true,230275.59999999963,230274.90000000037,228875.638,229123.40000000037,229115.68,230302.66,,,
choice,canvas.Screen,0_8_24_2,2022-07-15T14:16:00.485Z,,,,0.47,,4,1000.2209999999905,timeout,,,0.49,,0.49,,,6,34,,,,,,,,,,,0.47,true,231290.09999999963,231289.554,230289.031,230291.90000000037,230302.66,231302.881,134,,
ITI,canvas.Screen,0_8_24_3,2022-07-15T14:16:00.979Z,,,2187,,,4,493.49499999999534,timeout,,,0.49,,,,,,,,,,,,,,,,,0.47,true,231784,231783.021,231289.554,231290.20000000112,231302.881,231796.376,,,
trial,flow.Sequence,0_8_24,2022-07-15T14:16:00.980Z,,,,,,4,3387.482000000018,completion,,,0.49,,,,,,,,,,,,,,,,,0.47,true,231784.70000000112,231783.021,228382.193,228383.20000000112,228395.539,231796.376,,,
fixation,canvas.Screen,0_8_25_0,2022-07-15T14:16:01.472Z,,,,,,2,693.4830000000075,timeout,,,0.495,,,,,,,,,,,,,,,,,0.485,true,232277.09999999963,232276.478,231783.021,231784.80000000075,231796.376,232489.859,,,
stimulus,canvas.Screen,0_8_25_1,2022-07-15T14:16:02.282Z,,,,,,2,597.0410000003758,response,,0.485,0.495,,,https://raw.githubusercontent.com/carero2/loss-perception/main/png/0.485blue1yellowb%3D1w%3D100v%3D92.png,https://raw.githubusercontent.com/carero2/loss-perception/main/png/0.495blue1yellowb%3D1w%3D100v%3D92.png,,,,,,,,,true,j,keypress(j),0.495,0.485,true,233087.59999999963,233086.90000000037,232276.478,232496.30000000075,232489.859,233125.919,,,
choice,canvas.Screen,0_8_25_2,2022-07-15T14:16:03.312Z,,,,0.495,,2,1004.3209999999963,timeout,,,0.495,,0.485,,,1,35,,,,,,,,,,,0.485,true,234117.40000000037,234116.916,233089.896,233102.70000000112,233125.919,234130.24,135,,
ITI,canvas.Screen,0_8_25_3,2022-07-15T14:16:03.806Z,,,2864,,,2,493.4630000000179,timeout,,,0.495,,,,,,,,,,,,,,,,,0.485,true,234610.90000000037,234610.381,234116.916,234117.5,234130.24,234623.703,,,
trial,flow.Sequence,0_8_25,2022-07-15T14:16:03.806Z,,,,,,2,2814.0050000000047,completion,,,0.495,,,,,,,,,,,,,,,,,0.485,true,234611.20000000112,234610.381,231783.021,231784.80000000075,231796.376,234623.703,,,
fixation,canvas.Screen,0_8_26_0,2022-07-15T14:16:04.299Z,,,,,,6,666.8359999999811,timeout,,,0.545,,,,,,,,,,,,,,,,,0.515,true,235104.30000000075,235103.821,234610.381,234611.40000000037,234623.703,235290.539,,,
stimulus,canvas.Screen,0_8_26_1,2022-07-15T14:16:05.171Z,,,,,,6,684.6610000011278,response,,0.515,0.545,,,https://raw.githubusercontent.com/carero2/loss-perception/main/png/0.515blue1yellowb%3D1w%3D100v%3D76.png,https://raw.githubusercontent.com/carero2/loss-perception/main/png/0.545blue1yellowb%3D1w%3D100v%3D76.png,,,,,,,,,true,f,keypress(f),0.545,0.515,true,235976,235975.20000000112,235103.821,235297.30000000075,235290.539,235997.368,,,
choice,canvas.Screen,0_8_26_2,2022-07-15T14:16:06.180Z,,,,0.515,,6,1000.2609999999986,timeout,,,0.545,,0.545,,,-3,32,,,,,,,,,,,0.515,true,236985,236984.275,235983.853,235990,235997.368,236997.629,132,,
ITI,canvas.Screen,0_8_26_3,2022-07-15T14:16:06.673Z,,,2678,,,6,493.4340000000084,timeout,,,0.545,,,,,,,,,,,,,,,,,0.515,true,237478.30000000075,237477.744,236984.275,236985.30000000075,236997.629,237491.063,,,
trial,flow.Sequence,0_8_26,2022-07-15T14:16:06.673Z,,,,,,6,2854.0409999999974,completion,,,0.545,,,,,,,,,,,,,,,,,0.515,true,237478.5,237477.744,234610.381,234611.40000000037,234623.703,237491.063,,,
fixation,canvas.Screen,0_8_27_0,2022-07-15T14:16:07.167Z,,,,,,4,706.8589999999967,timeout,,,0.49,,,,,,,,,,,,,,,,,0.47,false,237972.09999999963,237971.221,237477.744,237478.5,237491.063,238197.922,,,
stimulus,canvas.Screen,0_8_27_1,2022-07-15T14:16:08.130Z,,,,,,4,736.0780000000086,response,,0.49,0.49,,,https://raw.githubusercontent.com/carero2/loss-perception/main/png/0.49blue1yellowb%3D1w%3D100v%3D96.png,https://raw.githubusercontent.com/carero2/loss-perception/main/png/0.47blue1yellowb%3D1w%3D100v%3D96.png,,,,,,,,,true,j,keypress(j),0.47,0.47,false,238934.80000000075,238934,237971.221,238204.59999999963,238197.922,238958.107,,,
choice,canvas.Screen,0_8_27_2,2022-07-15T14:16:09.140Z,,,,0.47,,4,1000.2360000000044,timeout,,,0.49,,0.49,,,6,38,,,,,,,,,,,0.47,false,239945.59999999963,239945.021,238944.589,238949,238958.107,239958.343,138,,
ITI,canvas.Screen,0_8_27_3,2022-07-15T14:16:09.634Z,,,2624,,,4,493.4459999999963,timeout,,,0.49,,,,,,,,,,,,,,,,,0.47,false,240439,240438.461,239945.021,239945.80000000075,239958.343,240451.789,,,
trial,flow.Sequence,0_8_27,2022-07-15T14:16:09.634Z,,,,,,4,2947.3980000000156,completion,,,0.49,,,,,,,,,,,,,,,,,0.47,false,240439.20000000112,240438.461,237477.744,237478.5,237491.063,240451.789,,,
fixation,canvas.Screen,0_8_28_0,2022-07-15T14:16:10.127Z,,,,,,6,666.8300000000163,timeout,,,0.545,,,,,,,,,,,,,,,,,0.515,true,240932.59999999963,240931.902,240438.461,240439.30000000075,240451.789,241118.619,,,
stimulus,canvas.Screen,0_8_28_1,2022-07-15T14:16:11.082Z,,,,,,6,767.181000000739,response,,0.515,0.545,,,https://raw.githubusercontent.com/carero2/loss-perception/main/png/0.515blue1yellowb%3D1w%3D100v%3D42.png,https://raw.githubusercontent.com/carero2/loss-perception/main/png/0.545blue1yellowb%3D1w%3D100v%3D42.png,,,,,,,,,true,f,keypress(f),0.545,0.515,true,241886.5,241885.80000000075,240931.902,241126.20000000112,241118.619,241905.494,,,
choice,canvas.Screen,0_8_28_2,2022-07-15T14:16:12.088Z,,,,0.515,,6,1000.2419999999984,timeout,,,0.545,,0.545,,,-3,35,,,,,,,,,,,0.515,true,242893,242892.394,241891.951,241900.59999999963,241905.494,242905.736,135,,
ITI,canvas.Screen,0_8_28_3,2022-07-15T14:16:12.582Z,,,2092,,,6,493.4429999999993,timeout,,,0.545,,,,,,,,,,,,,,,,,0.515,true,243386.70000000112,243385.838,242892.394,242893.09999999963,242905.736,243399.179,,,
trial,flow.Sequence,0_8_28,2022-07-15T14:16:12.582Z,,,,,,6,2934.048999999999,completion,,,0.545,,,,,,,,,,,,,,,,,0.515,true,243387.09999999963,243385.838,240438.461,240439.20000000112,240451.789,243399.179,,,
fixation,canvas.Screen,0_8_29_0,2022-07-15T14:16:13.075Z,,,,,,2,693.5160000000033,timeout,,,0.515,,,,,,,,,,,,,,,,,0.505,true,243879.80000000075,243879.322,243385.838,243387.20000000112,243399.179,244092.695,,,
stimulus,canvas.Screen,0_8_29_1,2022-07-15T14:16:13.965Z,,,,,,2,676.4049999996205,response,,0.505,0.515,,,https://raw.githubusercontent.com/carero2/loss-perception/main/png/0.505blue1yellowb%3D1w%3D100v%3D44.png,https://raw.githubusercontent.com/carero2/loss-perception/main/png/0.515blue1yellowb%3D1w%3D100v%3D44.png,,,,,,,,,true,j,keypress(j),0.515,0.505,true,244769.70000000112,244769.09999999963,243879.322,244099.30000000075,244092.695,244814.701,,,
choice,canvas.Screen,0_8_29_2,2022-07-15T14:16:14.996Z,,,,0.515,,2,998.445000000007,timeout,,,0.515,,0.505,,,-3,32,,,,,,,,,,,0.505,true,245800.30000000075,245799.772,244772.668,244785.40000000037,244814.701,245813.146,132,,
ITI,canvas.Screen,0_8_29_3,2022-07-15T14:16:15.489Z,,,2782,,,2,493.41499999997905,timeout,,,0.515,,,,,,,,,,,,,,,,,0.505,true,246294,246293.235,245799.772,245800.40000000037,245813.146,246306.561,,,
trial,flow.Sequence,0_8_29,2022-07-15T14:16:15.490Z,,,,,,2,2894.0559999999823,completion,,,0.515,,,,,,,,,,,,,,,,,0.505,true,246294.30000000075,246293.235,243385.838,243387.20000000112,243399.179,246306.561,,,
fixation,canvas.Screen,0_8_30_0,2022-07-15T14:16:15.982Z,,,,,,4,693.5230000000156,timeout,,,0.51,,,,,,,,,,,,,,,,,0.49,false,246787.20000000112,246786.705,246293.235,246294.40000000037,246306.561,247000.084,,,
stimulus,canvas.Screen,0_8_30_1,2022-07-15T14:16:16.978Z,,,,,,4,782.116000001115,response,,0.51,0.51,,,https://raw.githubusercontent.com/carero2/loss-perception/main/png/0.51blue1yellowb%3D1w%3D100v%3D87.png,https://raw.githubusercontent.com/carero2/loss-perception/main/png/0.49blue1yellowb%3D1w%3D100v%3D87.png,,,,,,,,,true,j,keypress(j),0.49,0.49,false,247782.80000000075,247782.20000000112,246786.705,247006.59999999963,247000.084,247800.307,,,
choice,canvas.Screen,0_8_30_2,2022-07-15T14:16:17.983Z,,,,0.49,,4,1000.1939999999886,timeout,,,0.51,,0.51,,,2,34,,,,,,,,,,,0.49,false,248787.70000000112,248787.189,247786.708,247797.70000000112,247800.307,248800.501,134,,
ITI,canvas.Screen,0_8_30_3,2022-07-15T14:16:18.477Z,,,2480,,,4,493.4790000000212,timeout,,,0.51,,,,,,,,,,,,,,,,,0.49,false,249281.30000000075,249280.615,248787.189,248787.90000000037,248800.501,249293.98,,,
trial,flow.Sequence,0_8_30,2022-07-15T14:16:18.477Z,,,,,,4,2974.0540000000037,completion,,,0.51,,,,,,,,,,,,,,,,,0.49,false,249281.5,249280.615,246293.235,246294.40000000037,246306.561,249293.98,,,
fixation,canvas.Screen,0_8_31_0,2022-07-15T14:16:18.970Z,,,,,,6,613.4729999999981,timeout,,,0.485,,,,,,,,,,,,,,,,,0.455,false,249774.59999999963,249774.077,249280.615,249281.70000000112,249293.98,249907.453,,,
stimulus,canvas.Screen,0_8_31_1,2022-07-15T14:16:19.767Z,,,,,,6,663.3470000007364,response,,0.485,0.485,,,https://raw.githubusercontent.com/carero2/loss-perception/main/png/0.485blue1yellowb%3D1w%3D100v%3D80.png,https://raw.githubusercontent.com/carero2/loss-perception/main/png/0.455blue1yellowb%3D1w%3D100v%3D80.png,,,,,,,,,true,j,keypress(j),0.455,0.455,false,250571.59999999963,250570.80000000075,249774.077,249920.5,249907.453,250587.628,,,
choice,canvas.Screen,0_8_31_2,2022-07-15T14:16:20.770Z,,,,0.455,,6,1000.2490000000107,timeout,,,0.485,,0.485,,,9,43,,,,,,,,,,,0.455,false,251575.09999999963,251574.504,250574.112,250585.5,250587.628,251587.877,143,,
ITI,canvas.Screen,0_8_31_3,2022-07-15T14:16:21.264Z,,,2810,,,6,493.4210000000021,timeout,,,0.485,,,,,,,,,,,,,,,,,0.455,false,252068.5,252067.977,251574.504,251575.30000000075,251587.877,252081.298,,,
trial,flow.Sequence,0_8_31,2022-07-15T14:16:21.264Z,,,,,,6,2773.997000000003,completion,,,0.485,,,,,,,,,,,,,,,,,0.455,false,252068.70000000112,252067.977,249280.615,249281.59999999963,249293.98,252081.298,,,
fixation,canvas.Screen,0_8_32_0,2022-07-15T14:16:21.757Z,,,,,,6,746.8800000000047,timeout,,,0.515,,,,,,,,,,,,,,,,,0.485,true,252561.90000000037,252561.437,252067.977,252068.80000000075,252081.298,252828.178,,,
stimulus,canvas.Screen,0_8_32_1,2022-07-15T14:16:22.591Z,,,,,,6,566.7220000003581,response,,0.485,0.515,,,https://raw.githubusercontent.com/carero2/loss-perception/main/png/0.485blue1yellowb%3D1w%3D100v%3D45.png,https://raw.githubusercontent.com/carero2/loss-perception/main/png/0.515blue1yellowb%3D1w%3D100v%3D45.png,,,,,,,,,true,f,keypress(f),0.515,0.485,true,253395.59999999963,253394.90000000037,252561.437,252835.30000000075,252828.178,253414.992,,,
choice,canvas.Screen,0_8_32_2,2022-07-15T14:16:23.598Z,,,,0.485,,6,1000.2669999999925,timeout,,,0.515,,0.515,,,3,46,,,,,,,,,,,0.485,true,254402.90000000037,254401.861,253401.49,253409.30000000075,253414.992,254415.259,146,,
ITI,canvas.Screen,0_8_32_3,2022-07-15T14:16:24.091Z,,,2661,,,6,493.41300000000047,timeout,,,0.515,,,,,,,,,,,,,,,,,0.485,true,254895.90000000037,254895.329,254401.861,254403.20000000112,254415.259,254908.672,,,
trial,flow.Sequence,0_8_32,2022-07-15T14:16:24.091Z,,,,,,6,2814.030999999988,completion,,,0.515,,,,,,,,,,,,,,,,,0.485,true,254896.09999999963,254895.329,252067.977,252068.70000000112,252081.298,254908.672,,,
fixation,canvas.Screen,0_8_33_0,2022-07-15T14:16:24.585Z,,,,,,2,493.48500000001513,timeout,,,0.505,,,,,,,,,,,,,,,,,0.495,true,255389.59999999963,255388.786,254895.329,254896.30000000075,254908.672,255402.157,,,
stimulus,canvas.Screen,0_8_33_1,2022-07-15T14:16:25.926Z,,,,,,2,1327.743000000366,response,,0.495,0.505,,,https://raw.githubusercontent.com/carero2/loss-perception/main/png/0.495blue1yellowb%3D1w%3D100v%3D36.png,https://raw.githubusercontent.com/carero2/loss-perception/main/png/0.505blue1yellowb%3D1w%3D100v%3D36.png,,,,,,,,,true,j,keypress(j),0.505,0.495,true,256730.59999999963,256729.90000000037,255388.786,255404.09999999963,255402.157,256749.101,,,
choice,canvas.Screen,0_8_33_2,2022-07-15T14:16:26.932Z,,,,0.505,,2,1000.2930000000051,timeout,,,0.505,,0.495,,,-1,45,,,,,,,,,,,0.495,true,257736.59999999963,257736.02,256735.423,256746,256749.101,257749.394,145,,
ITI,canvas.Screen,0_8_33_3,2022-07-15T14:16:27.425Z,,,2406,,,2,493.429999999993,timeout,,,0.505,,,,,,,,,,,,,,,,,0.495,true,258229.90000000037,258229.472,257736.02,257736.70000000112,257749.394,258242.824,,,
trial,flow.Sequence,0_8_33,2022-07-15T14:16:27.425Z,,,,,,2,3320.8000000000175,completion,,,0.505,,,,,,,,,,,,,,,,,0.495,true,258230.09999999963,258229.472,254895.329,254896.30000000075,254908.672,258242.824,,,
fixation,canvas.Screen,0_8_34_0,2022-07-15T14:16:27.919Z,,,,,,2,693.4930000000168,timeout,,,0.495,,,,,,,,,,,,,,,,,0.485,false,258723.40000000037,258722.948,258229.472,258230.30000000075,258242.824,258936.317,,,
stimulus,canvas.Screen,0_8_34_1,2022-07-15T14:16:28.881Z,,,,,,2,748.2829999996175,response,,0.495,0.495,,,https://raw.githubusercontent.com/carero2/loss-perception/main/png/0.495blue1yellowb%3D1w%3D100v%3D15.png,https://raw.githubusercontent.com/carero2/loss-perception/main/png/0.485blue1yellowb%3D1w%3D100v%3D15.png,,,,,,,,,true,j,keypress(j),0.485,0.485,false,259685.80000000075,259684.59999999963,258722.948,258944.09999999963,258936.317,259709.869,,,
choice,canvas.Screen,0_8_34_2,2022-07-15T14:16:29.893Z,,,,0.485,,2,1000.2459999999846,timeout,,,0.495,,0.495,,,3,48,,,,,,,,,,,0.485,false,260697.59999999963,260696.732,259696.404,259699.30000000075,259709.869,260710.115,148,,
ITI,canvas.Screen,0_8_34_3,2022-07-15T14:16:30.386Z,,,2283,,,2,493.4100000000035,timeout,,,0.495,,,,,,,,,,,,,,,,,0.485,false,261190.80000000075,261190.204,260696.732,260697.70000000112,260710.115,261203.525,,,
trial,flow.Sequence,0_8_34,2022-07-15T14:16:30.386Z,,,,,,2,2947.3800000000047,completion,,,0.495,,,,,,,,,,,,,,,,,0.485,false,261191,261190.204,258229.472,258230.30000000075,258242.824,261203.525,,,
fixation,canvas.Screen,0_8_35_0,2022-07-15T14:16:30.880Z,,,,,,4,493.47100000001956,timeout,,,0.53,,,,,,,,,,,,,,,,,0.51,false,261684.70000000112,261683.646,261190.204,261191.09999999963,261203.525,261696.996,,,
stimulus,canvas.Screen,0_8_35_1,2022-07-15T14:16:31.608Z,,,,,,4,715.0039999999863,response,,0.53,0.53,,,https://raw.githubusercontent.com/carero2/loss-perception/main/png/0.53blue1yellowb%3D1w%3D100v%3D41.png,https://raw.githubusercontent.com/carero2/loss-perception/main/png/0.51blue1yellowb%3D1w%3D100v%3D41.png,,,,,,,,,true,j,keypress(j),0.51,0.51,false,262412.9000000004,262412,261683.646,261698.70000000112,261696.996,262430.484,,,
choice,canvas.Screen,0_8_35_2,2022-07-15T14:16:32.614Z,,,,0.51,,4,1000.3020000000251,timeout,,,0.53,,0.53,,,-2,46,,,,,,,,,,,0.51,false,263418.30000000075,263417.404,262416.993,262426.0999999996,262430.484,263430.786,146,,
ITI,canvas.Screen,0_8_35_3,2022-07-15T14:16:33.107Z,,,2572,,,4,493.4459999999963,timeout,,,0.53,,,,,,,,,,,,,,,,,0.51,false,263911.5,263910.892,263417.404,263418.5,263430.786,263924.232,,,
trial,flow.Sequence,0_8_35,2022-07-15T14:16:33.107Z,,,,,,4,2707.3669999999984,completion,,,0.53,,,,,,,,,,,,,,,,,0.51,false,263911.7000000011,263910.892,261190.204,261191.09999999963,261203.525,263924.232,,,
fixation,canvas.Screen,0_8_36_0,2022-07-15T14:16:33.600Z,,,,,,6,746.8349999999627,timeout,,,0.515,,,,,,,,,,,,,,,,,0.485,true,264405,264404.313,263910.892,263911.80000000075,263924.232,264671.067,,,
stimulus,canvas.Screen,0_8_36_1,2022-07-15T14:16:34.679Z,,,,,,6,811.7330000007642,response,,0.485,0.515,,,https://raw.githubusercontent.com/carero2/loss-perception/main/png/0.485blue1yellowb%3D1w%3D100v%3D21.png,https://raw.githubusercontent.com/carero2/loss-perception/main/png/0.515blue1yellowb%3D1w%3D100v%3D21.png,,,,,,,,,true,j,keypress(j),0.515,0.485,true,265483.5999999996,265482.80000000075,264404.313,264680.7000000011,264671.067,265515.781,,,
choice,canvas.Screen,0_8_36_2,2022-07-15T14:16:35.694Z,,,,0.515,,6,995.7870000000112,timeout,,,0.515,,0.485,,,-3,43,,,,,,,,,,,0.485,true,266498.7000000011,266498.165,265484.495,265497.0999999996,265515.781,266511.568,143,,
ITI,canvas.Screen,0_8_36_3,2022-07-15T14:16:36.189Z,,,2703,,,6,493.40199999994365,timeout,,,0.515,,,,,,,,,,,,,,,,,0.485,true,266993.30000000075,266991.66,266498.165,266498.80000000075,266511.568,267004.97,,,
trial,flow.Sequence,0_8_36,2022-07-15T14:16:36.189Z,,,,,,6,3067.4279999999562,completion,,,0.515,,,,,,,,,,,,,,,,,0.485,true,266993.7000000011,266991.66,263910.892,263911.7000000011,263924.232,267004.97,,,
fixation,canvas.Screen,0_8_37_0,2022-07-15T14:16:36.681Z,,,,,,6,1280.3030000000144,timeout,,,0.545,,,,,,,,,,,,,,,,,0.515,true,267485.5,267485.077,266991.66,266993.80000000075,267004.97,268285.273,,,
stimulus,canvas.Screen,0_8_37_1,2022-07-15T14:16:38.111Z,,,,,,6,629.826999999641,response,,0.515,0.545,,,https://raw.githubusercontent.com/carero2/loss-perception/main/png/0.515blue1yellowb%3D1w%3D100v%3D86.png,https://raw.githubusercontent.com/carero2/loss-perception/main/png/0.545blue1yellowb%3D1w%3D100v%3D86.png,,,,,,,,,true,f,keypress(f),0.545,0.515,true,268916,268915.0999999996,267485.077,268292,268285.273,268938.749,,,
choice,canvas.Screen,0_8_37_2,2022-07-15T14:16:39.122Z,,,,0.515,,6,1000.2619999999879,timeout,,,0.545,,0.545,,,-3,40,,,,,,,,,,,0.515,true,269926.7000000011,269925.686,268925.373,268929.80000000075,268938.749,269939.011,140,,
ITI,canvas.Screen,0_8_37_3,2022-07-15T14:16:39.615Z,,,2806,,,6,493.43699999997625,timeout,,,0.545,,,,,,,,,,,,,,,,,0.515,true,270419.5999999996,270419.123,269925.686,269926.9000000004,269939.011,270432.448,,,
trial,flow.Sequence,0_8_37,2022-07-15T14:16:39.615Z,,,,,,6,3414.1530000000494,completion,,,0.545,,,,,,,,,,,,,,,,,0.515,true,270419.9000000004,270419.123,266991.66,266993.7000000011,267004.97,270432.448,,,
fixation,canvas.Screen,0_8_38_0,2022-07-15T14:16:40.109Z,,,,,,2,893.5930000000517,timeout,,,0.505,,,,,,,,,,,,,,,,,0.495,false,270913.5,270912.615,270419.123,270419.9000000004,270432.448,271326.041,,,
stimulus,canvas.Screen,0_8_38_1,2022-07-15T14:16:41.205Z,,,,,,2,683.0589999996009,response,,0.505,0.505,,,https://raw.githubusercontent.com/carero2/loss-perception/main/png/0.505blue1yellowb%3D1w%3D100v%3D30.png,https://raw.githubusercontent.com/carero2/loss-perception/main/png/0.495blue1yellowb%3D1w%3D100v%3D30.png,,,,,,,,,true,j,keypress(j),0.495,0.495,false,272009.80000000075,272009.0999999996,270912.615,271332.5999999996,271326.041,272032.87,,,
choice,canvas.Screen,0_8_38_2,2022-07-15T14:16:42.216Z,,,,0.495,,2,1000.2289999999921,timeout,,,0.505,,0.505,,,1,41,,,,,,,,,,,0.495,false,273020.4000000004,273019.753,272019.339,272024.4000000004,272032.87,273033.099,141,,
ITI,canvas.Screen,0_8_38_3,2022-07-15T14:16:42.709Z,,,2511,,,2,493.4880000000121,timeout,,,0.505,,,,,,,,,,,,,,,,,0.495,false,273513.80000000075,273513.226,273019.753,273020.5999999996,273033.099,273526.587,,,
trial,flow.Sequence,0_8_38,2022-07-15T14:16:42.709Z,,,,,,2,3080.7780000000494,completion,,,0.505,,,,,,,,,,,,,,,,,0.495,false,273514,273513.226,270419.123,270419.9000000004,270432.448,273526.587,,,
fixation,canvas.Screen,0_8_39_0,2022-07-15T14:16:43.203Z,,,,,,4,693.4820000000182,timeout,,,0.53,,,,,,,,,,,,,,,,,0.51,true,274007.30000000075,274006.689,273513.226,273514,273526.587,274220.069,,,
stimulus,canvas.Screen,0_8_39_1,2022-07-15T14:16:43.769Z,,,,,,4,352.73100000072736,response,,0.51,0.53,,,https://raw.githubusercontent.com/carero2/loss-perception/main/png/0.51blue1yellowb%3D1w%3D100v%3D65.png,https://raw.githubusercontent.com/carero2/loss-perception/main/png/0.53blue1yellowb%3D1w%3D100v%3D65.png,,,,,,,,,true,f,keypress(f),0.53,0.51,true,274573.5999999996,274572.80000000075,274006.689,274228.80000000075,274220.069,274593.479,,,
choice,canvas.Screen,0_8_39_2,2022-07-15T14:16:44.776Z,,,,0.51,,4,1000.2939999999944,timeout,,,0.53,,0.53,,,-2,39,,,,,,,,,,,0.51,true,275581,275580.381,274580.057,274587.80000000075,274593.479,275593.773,139,,
ITI,canvas.Screen,0_8_39_3,2022-07-15T14:16:45.270Z,,,2904,,,4,493.4089999999851,timeout,,,0.53,,,,,,,,,,,,,,,,,0.51,true,276074.30000000075,276073.851,275580.381,275581.4000000004,275593.773,276087.182,,,
trial,flow.Sequence,0_8_39,2022-07-15T14:16:45.270Z,,,,,,4,2547.2640000000247,completion,,,0.53,,,,,,,,,,,,,,,,,0.51,true,276074.5999999996,276073.851,273513.226,273514,273526.587,276087.182,,,
fixation,canvas.Screen,0_8_40_0,2022-07-15T14:16:45.763Z,,,,,,4,773.5400000000373,timeout,,,0.51,,,,,,,,,,,,,,,,,0.49,true,276567.80000000075,276567.286,276073.851,276074.5999999996,276087.182,276860.722,,,
stimulus,canvas.Screen,0_8_40_1,2022-07-15T14:16:46.408Z,,,,,,4,351.5780000007362,response,,0.49,0.51,,,https://raw.githubusercontent.com/carero2/loss-perception/main/png/0.49blue1yellowb%3D1w%3D100v%3D1.png,https://raw.githubusercontent.com/carero2/loss-perception/main/png/0.51blue1yellowb%3D1w%3D100v%3D1.png,,,,,,,,,true,j,keypress(j),0.51,0.49,true,277213,277212.30000000075,276567.286,276868.7000000011,276860.722,277234.11,,,
choice,canvas.Screen,0_8_40_2,2022-07-15T14:16:47.417Z,,,,0.51,,4,1000.26800000004,timeout,,,0.51,,0.49,,,-2,37,,,,,,,,,,,0.49,true,278222.0999999996,278221.024,277220.704,277226.5,277234.11,278234.378,137,,
ITI,canvas.Screen,0_8_40_3,2022-07-15T14:16:47.910Z,,,2827,,,4,493.47299999999814,timeout,,,0.51,,,,,,,,,,,,,,,,,0.49,true,278715.0999999996,278714.524,278221.024,278222.4000000004,278234.378,278727.851,,,
trial,flow.Sequence,0_8_40,2022-07-15T14:16:47.911Z,,,,,,4,2627.342000000004,completion,,,0.51,,,,,,,,,,,,,,,,,0.49,true,278715.30000000075,278714.524,276073.851,276074.5999999996,276087.182,278727.851,,,
fixation,canvas.Screen,0_8_41_0,2022-07-15T14:16:48.404Z,,,,,,2,706.8189999999595,timeout,,,0.495,,,,,,,,,,,,,,,,,0.485,false,279208.7000000011,279207.948,278714.524,278715.4000000004,278727.851,279434.67,,,
stimulus,canvas.Screen,0_8_41_1,2022-07-15T14:16:49.159Z,,,,,,2,528.2300000003888,response,,0.495,0.495,,,https://raw.githubusercontent.com/carero2/loss-perception/main/png/0.495blue1yellowb%3D1w%3D100v%3D48.png,https://raw.githubusercontent.com/carero2/loss-perception/main/png/0.485blue1yellowb%3D1w%3D100v%3D48.png,,,,,,,,,true,j,keypress(j),0.485,0.485,false,279963.5999999996,279962.9000000004,279207.948,279441.0999999996,279434.67,279981.469,,,
choice,canvas.Screen,0_8_41_2,2022-07-15T14:16:50.164Z,,,,0.485,,2,1000.25,timeout,,,0.495,,0.495,,,3,40,,,,,,,,,,,0.485,false,280969,280968.363,279967.994,279977.2000000011,279981.469,280981.719,140,,
ITI,canvas.Screen,0_8_41_3,2022-07-15T14:16:50.658Z,,,2450,,,2,493.44900000002235,timeout,,,0.495,,,,,,,,,,,,,,,,,0.485,false,281462.30000000075,281461.873,280968.363,280969.0999999996,280981.719,281475.168,,,
trial,flow.Sequence,0_8_41,2022-07-15T14:16:50.658Z,,,,,,2,2734.021999999997,completion,,,0.495,,,,,,,,,,,,,,,,,0.485,false,281462.5,281461.873,278714.524,278715.30000000075,278727.851,281475.168,,,
fixation,canvas.Screen,0_8_42_0,2022-07-15T14:16:51.151Z,,,,,,6,680.1680000000051,timeout,,,0.485,,,,,,,,,,,,,,,,,0.455,false,281956.2000000011,281955.268,281461.873,281462.5999999996,281475.168,282155.336,,,
stimulus,canvas.Screen,0_8_42_1,2022-07-15T14:16:52.170Z,,,,,,6,818.6639999999898,response,,0.485,0.485,,,https://raw.githubusercontent.com/carero2/loss-perception/main/png/0.485blue1yellowb%3D1w%3D100v%3D63.png,https://raw.githubusercontent.com/carero2/loss-perception/main/png/0.455blue1yellowb%3D1w%3D100v%3D63.png,,,,,,,,,true,j,keypress(j),0.455,0.455,false,282974.7000000011,282974,281955.268,282162.80000000075,282155.336,282995.534,,,
choice,canvas.Screen,0_8_42_2,2022-07-15T14:16:53.179Z,,,,0.455,,6,1000.2430000000168,timeout,,,0.485,,0.485,,,9,49,,,,,,,,,,,0.455,false,283983.4000000004,283982.433,282982,282989.0999999996,282995.534,283995.777,149,,
ITI,canvas.Screen,0_8_42_3,2022-07-15T14:16:53.672Z,,,2067,,,6,493.44699999998556,timeout,,,0.485,,,,,,,,,,,,,,,,,0.455,false,284476.30000000075,284475.893,283982.433,283983.5,283995.777,284489.224,,,
trial,flow.Sequence,0_8_42,2022-07-15T14:16:53.672Z,,,,,,6,3000.7249999999767,completion,,,0.485,,,,,,,,,,,,,,,,,0.455,false,284476.5999999996,284475.893,281461.873,281462.5999999996,281475.168,284489.224,,,
fixation,canvas.Screen,0_8_43_0,2022-07-15T14:16:54.165Z,,,,,,4,746.8880000000354,timeout,,,0.49,,,,,,,,,,,,,,,,,0.47,true,284969.80000000075,284969.339,284475.893,284476.7000000011,284489.224,285236.112,,,
stimulus,canvas.Screen,0_8_43_1,2022-07-15T14:16:55.047Z,,,,,,4,613.9879999996047,response,,0.47,0.49,,,https://raw.githubusercontent.com/carero2/loss-perception/main/png/0.47blue1yellowb%3D1w%3D100v%3D56.png,https://raw.githubusercontent.com/carero2/loss-perception/main/png/0.49blue1yellowb%3D1w%3D100v%3D56.png,,,,,,,,,true,f,keypress(f),0.49,0.47,true,285852,285850.0999999996,284969.339,285245.0999999996,285236.112,285876.226,,,
choice,canvas.Screen,0_8_43_2,2022-07-15T14:16:56.059Z,,,,0.47,,4,1000.2589999999618,timeout,,,0.49,,0.49,,,6,55,,,,,,,,,,,0.47,true,286863.7000000011,286863.135,285862.742,285865.7000000011,285876.226,286876.485,155,,
ITI,canvas.Screen,0_8_43_3,2022-07-15T14:16:56.552Z,,,2450,,,4,493.4560000000056,timeout,,,0.49,,,,,,,,,,,,,,,,,0.47,true,287357.2000000011,287356.602,286863.135,286864,286876.485,287369.941,,,
trial,flow.Sequence,0_8_43,2022-07-15T14:16:56.553Z,,,,,,4,2867.378000000026,completion,,,0.49,,,,,,,,,,,,,,,,,0.47,true,287357.5,287356.602,284475.893,284476.7000000011,284489.224,287369.941,,,
fixation,canvas.Screen,0_8_44_0,2022-07-15T14:16:57.046Z,,,,,,2,693.4920000000275,timeout,,,0.515,,,,,,,,,,,,,,,,,0.505,true,287850.9000000004,287850.057,287356.602,287357.5,287369.941,288063.433,,,
stimulus,canvas.Screen,0_8_44_1,2022-07-15T14:16:57.542Z,,,,,,2,282.7670000010985,response,,0.505,0.515,,,https://raw.githubusercontent.com/carero2/loss-perception/main/png/0.505blue1yellowb%3D1w%3D100v%3D98.png,https://raw.githubusercontent.com/carero2/loss-perception/main/png/0.515blue1yellowb%3D1w%3D100v%3D98.png,,,,,,,,,true,j,keypress(j),0.515,0.505,true,288347,288346.2000000011,287850.057,288071,288063.433,288370.196,,,
choice,canvas.Screen,0_8_44_2,2022-07-15T14:16:58.553Z,,,,0.515,,2,1000.2420000000275,timeout,,,0.515,,0.505,,,-3,52,,,,,,,,,,,0.505,true,289357.5999999996,289357.093,288356.775,288362,288370.196,289370.438,152,,
ITI,canvas.Screen,0_8_44_3,2022-07-15T14:16:59.046Z,,,2258,,,2,493.4319999999716,timeout,,,0.515,,,,,,,,,,,,,,,,,0.505,true,289851.2000000011,289850.535,289357.093,289357.7000000011,289370.438,289863.87,,,
trial,flow.Sequence,0_8_44,2022-07-15T14:16:59.047Z,,,,,,2,2480.5939999999828,completion,,,0.515,,,,,,,,,,,,,,,,,0.505,true,289851.5,289850.535,287356.602,287357.5,287369.941,289863.87,,,
1st block,flow.Loop,0_8,2022-07-15T14:16:59.047Z,,,,,,,137166.88599999997,completion,,,,,,,,,,,,,,,,,,,,,,289851.5999999996,289850.535,152670.082,152676.09999999963,152683.649,289863.87,,,
show amount,html.Screen,0_9,2022-07-15T14:17:04.689Z,,,,,,,5628.130000000005,response,,,,,,,,,,,,,,,,,Continue,click #Continue,,,,295493.7000000011,295492,289850.535,289852.5999999996,289863.87,295505.246,,,
second block,canvas.Screen,0_10,2022-07-15T14:17:07.652Z,,,,,,,2950.654000000388,response,,,,,,,,,,,,,,,,,space,keypress(Space),,,,298456.5,298455.9000000004,295491.911,295493.80000000075,295505.246,298465.984,,,
fixation,canvas.Screen,0_11_0_0,2022-07-15T14:17:08.143Z,,,,,,2,773.5119999999879,timeout,,,0.495,,,,,,,,,,,,,,,,,0.485,true,298947.30000000075,298946.112,298452.154,298456.5999999996,298465.984,299239.496,,,
stimulus,canvas.Screen,0_11_0_1,2022-07-15T14:17:09.632Z,,,,,,2,1196.3040000007604,response,,0.485,0.495,,,https://raw.githubusercontent.com/carero2/loss-perception/main/png/0.485blue1yellowb%3D1w%3D100v%3D88.png,https://raw.githubusercontent.com/carero2/loss-perception/main/png/0.495blue1yellowb%3D1w%3D100v%3D88.png,,,,,,,,,true,f,keypress(f),0.495,0.485,true,300436.4000000004,300435.80000000075,298946.112,299247.4000000004,299239.496,300476.838,,,
choice,canvas.Screen,0_11_0_2,2022-07-15T14:17:10.663Z,,,,0.485,,2,1003.2239999999874,timeout,,,0.495,,0.495,,,3,,3,,,,,,,,,,0.485,true,301467.2000000011,301466.709,300439.622,300452.0999999996,300476.838,301480.062,155,,
ITI,canvas.Screen,0_11_0_3,2022-07-15T14:17:11.156Z,,,2628,,,2,493.43600000004517,timeout,,,0.495,,,,,,,,,,,,,,,,,0.485,true,301960.9000000004,301960.182,301466.709,301467.30000000075,301480.062,301973.498,,,
trial,flow.Sequence,0_11_0,2022-07-15T14:17:11.156Z,,,,,,2,3494.197999999975,completion,,,0.495,,,,,,,,,,,,,,,,,0.485,true,301961.5,301960.182,298452.154,298456.5999999996,298465.984,301973.498,,,
fixation,canvas.Screen,0_11_1_0,2022-07-15T14:17:11.649Z,,,,,,4,760.1829999999609,timeout,,,0.49,,,,,,,,,,,,,,,,,0.47,false,302454.0999999996,302453.625,301960.182,301961.5999999996,301973.498,302733.681,,,
stimulus,canvas.Screen,0_11_1_1,2022-07-15T14:17:12.706Z,,,,,,4,776.3190000000177,response,,0.49,0.49,,,https://raw.githubusercontent.com/carero2/loss-perception/main/png/0.49blue1yellowb%3D1w%3D100v%3D3.png,https://raw.githubusercontent.com/carero2/loss-perception/main/png/0.47blue1yellowb%3D1w%3D100v%3D3.png,,,,,,,,,true,f,keypress(f),0.47,0.47,false,303510.7000000011,303510,302453.625,302741,302733.681,303533.896,,,
choice,canvas.Screen,0_11_1_2,2022-07-15T14:17:13.716Z,,,,0.49,,4,1000.2390000000014,timeout,,,0.49,,0.47,,,2,,5,,,,,,,,,,0.47,false,304521.5,304520.795,303520.345,303525.80000000075,303533.896,304534.135,157,,
ITI,canvas.Screen,0_11_1_3,2022-07-15T14:17:14.210Z,,,2481,,,4,493.4409999999916,timeout,,,0.49,,,,,,,,,,,,,,,,,0.47,false,305014.80000000075,305014.269,304520.795,304521.7000000011,304534.135,305027.576,,,
trial,flow.Sequence,0_11_1,2022-07-15T14:17:14.210Z,,,,,,4,3040.7709999999497,completion,,,0.49,,,,,,,,,,,,,,,,,0.47,false,305015,305014.269,301960.182,301961.5999999996,301973.498,305027.576,,,
fixation,canvas.Screen,0_11_2_0,2022-07-15T14:17:14.703Z,,,,,,6,493.4739999999874,timeout,,,0.515,,,,,,,,,,,,,,,,,0.485,true,305508.5,305507.706,305014.269,305015.0999999996,305027.576,305521.05,,,
stimulus,canvas.Screen,0_11_2_1,2022-07-15T14:17:15.280Z,,,,,,6,562.9500000000116,response,,0.485,0.515,,,https://raw.githubusercontent.com/carero2/loss-perception/main/png/0.485blue1yellowb%3D1w%3D100v%3D36.png,https://raw.githubusercontent.com/carero2/loss-perception/main/png/0.515blue1yellowb%3D1w%3D100v%3D36.png,,,,,,,,,true,j,keypress(j),0.515,0.485,true,306084.80000000075,306084,305507.706,305524,305521.05,306107.856,,,
choice,canvas.Screen,0_11_2_2,2022-07-15T14:17:16.290Z,,,,0.515,,6,1000.2419999999693,timeout,,,0.515,,0.485,,,-3,,2,,,,,,,,,,0.485,true,307095.2000000011,307094.76,306094.369,306099,306107.856,307108.098,154,,
ITI,canvas.Screen,0_11_2_3,2022-07-15T14:17:16.784Z,,,2013,,,6,493.4519999999902,timeout,,,0.515,,,,,,,,,,,,,,,,,0.485,true,307588.9000000004,307588.201,307094.76,307095.4000000004,307108.098,307601.55,,,
trial,flow.Sequence,0_11_2,2022-07-15T14:17:16.784Z,,,,,,6,2560.625,completion,,,0.515,,,,,,,,,,,,,,,,,0.485,true,307589.2000000011,307588.201,305014.269,305015.0999999996,305027.576,307601.55,,,
fixation,canvas.Screen,0_11_3_0,2022-07-15T14:17:17.277Z,,,,,,2,666.8300000000163,timeout,,,0.515,,,,,,,,,,,,,,,,,0.505,false,308082.2000000011,308081.688,307588.201,307589.30000000075,307601.55,308268.38,,,
stimulus,canvas.Screen,0_11_3_1,2022-07-15T14:17:18.570Z,,,,,,2,1106.5200000003679,response,,0.515,0.515,,,https://raw.githubusercontent.com/carero2/loss-perception/main/png/0.515blue1yellowb%3D1w%3D100v%3D30.png,https://raw.githubusercontent.com/carero2/loss-perception/main/png/0.505blue1yellowb%3D1w%3D100v%3D30.png,,,,,,,,,true,f,keypress(f),0.505,0.505,false,309375.5999999996,309374.9000000004,308081.688,308274.80000000075,308268.38,309402.006,,,
choice,canvas.Screen,0_11_3_2,2022-07-15T14:17:19.584Z,,,,0.515,,2,1000.2280000000028,timeout,,,0.515,,0.505,,,-3,,-1,,,,,,,,,,0.505,false,310389.5,310388.886,309388.349,309391,309402.006,310402.234,151,,
ITI,canvas.Screen,0_11_3_3,2022-07-15T14:17:20.078Z,,,2029,,,2,493.44699999998556,timeout,,,0.515,,,,,,,,,,,,,,,,,0.505,false,310882.9000000004,310882.359,310388.886,310389.7000000011,310402.234,310895.681,,,
