sender,sender_type,sender_id,timestamp,meta,,ITI_value,choice,consent,diff_net_value,duration,ended_on,gain_color,left,left_side,loss_color,not_choice,picture_left,picture_right,points,points1Block,points2Block,points3Block,points4Block,points5Block,points6Block,pointsBlock,responded,response,response_action,right,right_side,switch_sides,time_commit,time_end,time_render,time_run,time_show,time_switch,totalPoints,totalPoints_practice,url
welcome,html.Screen,0_0,2022-07-15T22:03:17.901Z,"{""labjs_version"":""20.2.4"",""labjs_build"":{""flavor"":""production"",""commit"":""f5b4a49f956347addd546a832a3327688c2c0fef""},""location"":""https://run.pavlovia.org/Rey/loss-perception/"",""userAgent"":""Mozilla/5.0 (Windows NT 10.0; Win64; x64) AppleWebKit/537.36 (KHTML, like Gecko) Chrome/103.0.0.0 Safari/537.36"",""platform"":""Win32"",""language"":""en-GB"",""locale"":""en-GB"",""timeZone"":""Europe/London"",""timezoneOffset"":-60,""screen_width"":1366,""screen_height"":768,""scroll_width"":1362,""scroll_height"":1230,""window_innerWidth"":1362,""window_innerHeight"":1278,""devicePixelRatio"":0.5}",,,,,,2663.780999994022,response,yellow,,,blue,,,,,0,0,0,0,0,0,0,,Continue,click #Continue,,,,292110.5,292108.59999999404,289428.291,289437.09999999404,289444.819,292125.456,100,100,{}
consent,html.Form,0_1,2022-07-15T22:03:27.433Z,,,,,true,,9516.143999994034,form submission,,,,,,,,,,,,,,,,,,,,,,301642,301641.59999999404,292108.807,292111,292125.456,301649.273,,,
ProlificID,html.Form,0_2,2022-07-15T22:03:31.462Z,,,,,,,4022.0269999970333,form submission,,,,,,,,,,,,,,,,,,,,,,305671.700000003,305671.299999997,301644.533,301642.200000003,301649.273,305695.251,,,
instructions,html.Form,0_3,2022-07-15T22:04:10.068Z,,,,,,,38584.04899999703,form submission,,,,,,,,,,,,,,,,,,,,,,344279.700000003,344279.299999997,305662.509,305672,305695.251,344323.549,,,
Practice,canvas.Screen,0_4,2022-07-15T22:04:14.255Z,,,,,,,4140.451000000001,response,,,,,,,,,,,,,,,,,space,keypress(Space),,,,348467.200000003,348464,344273.792,344280,344323.549,348469.419,,,
fixation,canvas.Screen,0_5_0_0,2022-07-15T22:04:14.741Z,,,,,,9,499.44800000003306,timeout,,,0.485,,,,,,,,,,,,,,,,,0.53,false,348953.39999999106,348952.228,348462.553,348467.5,348469.419,348968.867,,,
stimulus,canvas.Screen,0_5_0_1,2022-07-15T22:04:17.739Z,,,,,,9,3013.646999999997,timeout,,0.485,0.485,,,https://raw.githubusercontent.com/carero2/loss-perception/main/png/0.485blue1yellowb%3D1w%3D100v%3D78.png,https://raw.githubusercontent.com/carero2/loss-perception/main/png/0.53blue1yellowb%3D1w%3D100v%3D78.png,,,,,,,,,,,,0.53,0.53,false,351950.700000003,351949.848,348952.228,348953.59999999404,348968.867,351982.514,,,
choice,canvas.Screen,0_5_0_2,2022-07-15T22:04:17.743Z,,,,0,,9,NaN,skipped,,,0.485,,0,,,0,,,,,,,0,false,timeout,,,0.53,false,351955.39999999106,351949.848,,351955,,351982.514,,100,
timeout,canvas.Screen,0_5_0_3,2022-07-15T22:04:19.753Z,,,,,,9,1998.5049999999464,timeout,,,0.485,,,,,,,,,,,,,,,,,0.53,false,353965.39999999106,353964.526,351949.848,351957,351982.514,353981.019,,,
ITI,canvas.Screen,0_5_0_4,2022-07-15T22:04:20.253Z,,,,,,9,499.06100000004517,timeout,,,0.485,,,,,,,,,,,,,,,,,0.53,false,354465,354464.036,353964.526,353965.700000003,353981.019,354480.08,,,
trial,flow.Sequence,0_5_0,2022-07-15T22:04:20.256Z,,,,,,9,5994.6170000000275,completion,,,0.485,,,,,,,,,,,,,,,,,0.53,false,354467.89999999106,354464.036,348462.553,348467.39999999106,348469.419,354480.08,,,
fixation,canvas.Screen,0_5_1_0,2022-07-15T22:04:20.752Z,,,,,,12,499.50299999996787,timeout,,,0.53,,,,,,,,,,,,,,,,,0.47,false,354964.5,354962.974,354464.036,354468.09999999404,354480.08,354979.583,,,
stimulus,canvas.Screen,0_5_1_1,2022-07-15T22:04:21.939Z,,,,,,12,1170.2169999970356,response,,0.53,0.53,,,https://raw.githubusercontent.com/carero2/loss-perception/main/png/0.53blue1yellowb%3D1w%3D100v%3D54.png,https://raw.githubusercontent.com/carero2/loss-perception/main/png/0.47blue1yellowb%3D1w%3D100v%3D54.png,,,,,,,,,true,f,keypress(f),0.47,0.47,false,356151.59999999404,356149.799999997,354962.974,354964.700000003,354979.583,356161.728,,,
choice,canvas.Screen,0_5_1_2,2022-07-15T22:04:23.945Z,,,,0.53,,12,1998.0299999999697,timeout,,,0.53,,0.47,,,-6,,,,,,,-6,,,,,0.47,false,358157.09999999404,358143.092,356147.032,356155.299999997,356161.728,358159.758,,94,
timeout,canvas.Screen,0_5_1_3,2022-07-15T22:04:23.949Z,,,,,,12,NaN,skipped,,,0.53,,,,,,,,,,,,,,,,,0.47,false,358160.799999997,358143.092,,358160.39999999106,,358159.758,,,
ITI,canvas.Screen,0_5_1_4,2022-07-15T22:04:24.432Z,,,,,,12,499.53000000002794,timeout,,,0.53,,,,,,,,,,,,,,,,,0.47,false,358644,358643.212,358143.092,358161.09999999404,358159.758,358659.288,,,
trial,flow.Sequence,0_5_1,2022-07-15T22:04:24.432Z,,,,,,12,4163.131999999983,completion,,,0.53,,,,,,,,,,,,,,,,,0.47,false,358644.299999997,358643.212,354464.036,354468,354480.08,358659.288,,,
fixation,canvas.Screen,0_5_2_0,2022-07-15T22:04:24.931Z,,,,,,6,499.4980000000214,timeout,,,0.515,,,,,,,,,,,,,,,,,0.485,true,359143.5,359142.718,358643.212,358644.39999999106,358659.288,359158.786,,,
stimulus,canvas.Screen,0_5_2_1,2022-07-15T22:04:26.150Z,,,,,,6,1201.7139999999781,response,,0.485,0.515,,,https://raw.githubusercontent.com/carero2/loss-perception/main/png/0.485blue1yellowb%3D1w%3D100v%3D36.png,https://raw.githubusercontent.com/carero2/loss-perception/main/png/0.515blue1yellowb%3D1w%3D100v%3D36.png,,,,,,,,,true,f,keypress(f),0.515,0.485,true,360361.89999999106,360360.5,359142.718,359143.59999999404,359158.786,360374.686,,,
choice,canvas.Screen,0_5_2_2,2022-07-15T22:04:28.144Z,,,,0.485,,6,1997.9980000000214,timeout,,,0.515,,0.515,,,3,,,,,,,-3,,,,,0.485,true,362356.299999997,362355.564,360353.079,360366.39999999106,360374.686,362372.684,,97,
timeout,canvas.Screen,0_5_2_3,2022-07-15T22:04:28.146Z,,,,,,6,NaN,skipped,,,0.515,,,,,,,,,,,,,,,,,0.485,true,362357.89999999106,362355.564,,362357.700000003,,362372.684,,,
ITI,canvas.Screen,0_5_2_4,2022-07-15T22:04:28.644Z,,,,,,6,498.99099999998,timeout,,,0.515,,,,,,,,,,,,,,,,,0.485,true,362856.299999997,362855.571,362355.564,362358.09999999404,362372.684,362871.675,,,
trial,flow.Sequence,0_5_2,2022-07-15T22:04:28.644Z,,,,,,6,4196.282999999996,completion,,,0.515,,,,,,,,,,,,,,,,,0.485,true,362856.5,362855.571,358643.212,358644.299999997,358659.288,362871.675,,,
fixation,canvas.Screen,0_5_3_0,2022-07-15T22:04:29.144Z,,,,,,18,499.58500000002095,timeout,,,0.545,,,,,,,,,,,,,,,,,0.455,true,363355.89999999106,363355.18,362855.571,362856.799999997,362871.675,363371.26,,,
stimulus,canvas.Screen,0_5_3_1,2022-07-15T22:04:30.096Z,,,,,,18,935.8399999940302,response,,0.455,0.545,,,https://raw.githubusercontent.com/carero2/loss-perception/main/png/0.455blue1yellowb%3D1w%3D100v%3D67.png,https://raw.githubusercontent.com/carero2/loss-perception/main/png/0.545blue1yellowb%3D1w%3D100v%3D67.png,,,,,,,,,true,j,keypress(j),0.545,0.455,true,364308.39999999106,364307.09999999404,363355.18,363356.09999999404,363371.26,364353.6,,,
choice,canvas.Screen,0_5_3_2,2022-07-15T22:04:32.129Z,,,,0.545,,18,1997.9890000000014,timeout,,,0.545,,0.455,,,-9,,,,,,,-12,,,,,0.455,true,366341.09999999404,366335.008,364304.223,364312.59999999404,364353.6,366351.589,,88,
timeout,canvas.Screen,0_5_3_3,2022-07-15T22:04:32.131Z,,,,,,18,NaN,skipped,,,0.545,,,,,,,,,,,,,,,,,0.455,true,366342.799999997,366335.008,,366342.5,,366351.589,,,
ITI,canvas.Screen,0_5_3_4,2022-07-15T22:04:32.624Z,,,,,,18,499.45200000004843,timeout,,,0.545,,,,,,,,,,,,,,,,,0.455,true,366835.799999997,366834.986,366335.008,366342.89999999106,366351.589,366851.041,,,
trial,flow.Sequence,0_5_3,2022-07-15T22:04:32.624Z,,,,,,18,3963.310999999987,completion,,,0.545,,,,,,,,,,,,,,,,,0.455,true,366836.09999999404,366834.986,362855.571,362856.700000003,362871.675,366851.041,,,
fixation,canvas.Screen,0_5_4_0,2022-07-15T22:04:33.124Z,,,,,,6,499.5699999999488,timeout,,,0.545,,,,,,,,,,,,,,,,,0.515,true,367336.09999999404,367334.466,366834.986,366836.299999997,366851.041,367350.611,,,
stimulus,canvas.Screen,0_5_4_1,2022-07-15T22:04:35.006Z,,,,,,6,1862.8890000000247,response,,0.515,0.545,,,https://raw.githubusercontent.com/carero2/loss-perception/main/png/0.515blue1yellowb%3D1w%3D100v%3D73.png,https://raw.githubusercontent.com/carero2/loss-perception/main/png/0.545blue1yellowb%3D1w%3D100v%3D73.png,,,,,,,,,true,f,keypress(f),0.545,0.515,true,369218.200000003,369213.5,367334.466,367336.299999997,367350.611,369232.071,,,
choice,canvas.Screen,0_5_4_2,2022-07-15T22:04:37.010Z,,,,0.515,,6,1998.015000000014,timeout,,,0.545,,0.545,,,-3,,,,,,,-15,,,,,0.515,true,371221.89999999106,371213.43,369207.628,369222.200000003,369232.071,371230.086,,85,
timeout,canvas.Screen,0_5_4_3,2022-07-15T22:04:37.012Z,,,,,,6,NaN,skipped,,,0.545,,,,,,,,,,,,,,,,,0.515,true,371224,371213.43,,371223.700000003,,371230.086,,,
ITI,canvas.Screen,0_5_4_4,2022-07-15T22:04:37.502Z,,,,,,6,499.5200000000186,timeout,,,0.545,,,,,,,,,,,,,,,,,0.515,true,371714.299999997,371713.543,371213.43,371224.09999999404,371230.086,371729.606,,,
trial,flow.Sequence,0_5_4,2022-07-15T22:04:37.502Z,,,,,,6,4862.501999999979,completion,,,0.545,,,,,,,,,,,,,,,,,0.515,true,371714.5,371713.543,366834.986,366836.200000003,366851.041,371729.606,,,
fixation,canvas.Screen,0_5_5_0,2022-07-15T22:04:38.002Z,,,,,,6,499.42299999995157,timeout,,,0.485,,,,,,,,,,,,,,,,,0.455,true,372213.799999997,372212.997,371713.543,371714.700000003,371729.606,372229.029,,,
stimulus,canvas.Screen,0_5_5_1,2022-07-15T22:04:39.694Z,,,,,,6,1674.6710000029998,response,,0.455,0.485,,,https://raw.githubusercontent.com/carero2/loss-perception/main/png/0.455blue1yellowb%3D1w%3D100v%3D36.png,https://raw.githubusercontent.com/carero2/loss-perception/main/png/0.485blue1yellowb%3D1w%3D100v%3D36.png,,,,,,,,,true,f,keypress(f),0.485,0.455,true,373905.700000003,373903.700000003,372212.997,372213.89999999106,372229.029,373944.066,,,
choice,canvas.Screen,0_5_5_2,2022-07-15T22:04:41.715Z,,,,0.455,,6,1998.0069999999832,timeout,,,0.485,,0.485,,,9,,,,,,,-6,,,,,0.455,true,375926.799999997,375925.99,373896.031,373910.200000003,373944.066,375942.073,,94,
timeout,canvas.Screen,0_5_5_3,2022-07-15T22:04:41.716Z,,,,,,6,NaN,skipped,,,0.485,,,,,,,,,,,,,,,,,0.455,true,375928.59999999404,375925.99,,375928.299999997,,375942.073,,,
ITI,canvas.Screen,0_5_5_4,2022-07-15T22:04:42.214Z,,,,,,6,499.64400000002934,timeout,,,0.485,,,,,,,,,,,,,,,,,0.455,true,376426.200000003,376425.405,375925.99,375928.799999997,375942.073,376441.717,,,
trial,flow.Sequence,0_5_5,2022-07-15T22:04:42.214Z,,,,,,6,4695.798999999999,completion,,,0.485,,,,,,,,,,,,,,,,,0.455,true,376426.5,376425.405,371713.543,371714.59999999404,371729.606,376441.717,,,
fixation,canvas.Screen,0_5_6_0,2022-07-15T22:04:42.714Z,,,,,,9,499.3289999999688,timeout,,,0.485,,,,,,,,,,,,,,,,,0.53,false,376925.799999997,376925.014,376425.405,376426.700000003,376441.717,376941.046,,,
stimulus,canvas.Screen,0_5_6_1,2022-07-15T22:04:43.890Z,,,,,,9,1159.7539999970468,response,,0.485,0.485,,,https://raw.githubusercontent.com/carero2/loss-perception/main/png/0.485blue1yellowb%3D1w%3D100v%3D100.png,https://raw.githubusercontent.com/carero2/loss-perception/main/png/0.53blue1yellowb%3D1w%3D100v%3D100.png,,,,,,,,,true,j,keypress(j),0.53,0.53,false,378102.09999999404,378100.799999997,376925.014,376925.799999997,376941.046,378123.23,,,
choice,canvas.Screen,0_5_6_2,2022-07-15T22:04:45.894Z,,,,0.53,,9,1998.0160000000033,timeout,,,0.485,,0.485,,,-6,,,,,,,-12,,,,,0.53,false,380106,380105.208,378101.819,378106.39999999106,378123.23,380121.246,,88,
timeout,canvas.Screen,0_5_6_3,2022-07-15T22:04:45.895Z,,,,,,9,NaN,skipped,,,0.485,,,,,,,,,,,,,,,,,0.53,false,380107.59999999404,380105.208,,380107.299999997,,380121.246,,,
ITI,canvas.Screen,0_5_6_4,2022-07-15T22:04:46.393Z,,,,,,9,499.50700000004144,timeout,,,0.485,,,,,,,,,,,,,,,,,0.53,false,380605.5,380604.695,380105.208,380107.799999997,380121.246,380620.753,,,
trial,flow.Sequence,0_5_6,2022-07-15T22:04:46.394Z,,,,,,9,4162.978000000003,completion,,,0.485,,,,,,,,,,,,,,,,,0.53,false,380605.799999997,380604.695,376425.405,376426.59999999404,376441.717,380620.753,,,
fixation,canvas.Screen,0_5_7_0,2022-07-15T22:04:46.892Z,,,,,,6,499.5,timeout,,,0.485,,,,,,,,,,,,,,,,,0.455,false,381104.39999999106,381103.652,380604.695,380605.89999999106,380620.753,381120.253,,,
stimulus,canvas.Screen,0_5_7_1,2022-07-15T22:04:48.320Z,,,,,,6,1407.5469999969937,response,,0.485,0.485,,,https://raw.githubusercontent.com/carero2/loss-perception/main/png/0.485blue1yellowb%3D1w%3D100v%3D35.png,https://raw.githubusercontent.com/carero2/loss-perception/main/png/0.455blue1yellowb%3D1w%3D100v%3D35.png,,,,,,,,,true,f,keypress(f),0.455,0.455,false,382531.799999997,382527.799999997,381103.652,381104.59999999404,381120.253,382552.178,,,
choice,canvas.Screen,0_5_7_2,2022-07-15T22:04:50.323Z,,,,0.485,,6,1998.0160000000033,timeout,,,0.485,,0.455,,,3,,,,,,,-9,,,,,0.455,false,384534.89999999106,384534.128,382520.33,382535.299999997,382552.178,384550.194,,91,
timeout,canvas.Screen,0_5_7_3,2022-07-15T22:04:50.325Z,,,,,,6,NaN,skipped,,,0.485,,,,,,,,,,,,,,,,,0.455,false,384537.09999999404,384534.128,,384536.700000003,,384550.194,,,
ITI,canvas.Screen,0_5_7_4,2022-07-15T22:04:50.822Z,,,,,,6,499.48099999997066,timeout,,,0.485,,,,,,,,,,,,,,,,,0.455,false,385034.39999999106,385033.658,384534.128,384537.299999997,384550.194,385049.675,,,
trial,flow.Sequence,0_5_7,2022-07-15T22:04:50.823Z,,,,,,6,4412.90499999997,completion,,,0.485,,,,,,,,,,,,,,,,,0.455,false,385034.799999997,385033.658,380604.695,380605.89999999106,380620.753,385049.675,,,
fixation,canvas.Screen,0_5_8_0,2022-07-15T22:04:51.326Z,,,,,,6,499.50400000001537,timeout,,,0.515,,,,,,,,,,,,,,,,,0.485,false,385538.5,385532.513,385033.658,385035,385049.675,385549.179,,,
stimulus,canvas.Screen,0_5_8_1,2022-07-15T22:04:52.136Z,,,,,,6,797.0210000029765,response,,0.515,0.515,,,https://raw.githubusercontent.com/carero2/loss-perception/main/png/0.515blue1yellowb%3D1w%3D100v%3D87.png,https://raw.githubusercontent.com/carero2/loss-perception/main/png/0.485blue1yellowb%3D1w%3D100v%3D87.png,,,,,,,,,true,f,keypress(f),0.485,0.485,false,386347.89999999106,386346.200000003,385532.513,385538.700000003,385549.179,386365.037,,,
choice,canvas.Screen,0_5_8_2,2022-07-15T22:04:54.136Z,,,,0.515,,6,1998.0169999999925,timeout,,,0.515,,0.485,,,-3,,,,,,,-12,,,,,0.485,false,388347.799999997,388346.991,386351.705,386351.59999999404,386365.037,388363.054,,88,
timeout,canvas.Screen,0_5_8_3,2022-07-15T22:04:54.138Z,,,,,,6,NaN,skipped,,,0.515,,,,,,,,,,,,,,,,,0.485,false,388350,388346.991,,388349.59999999404,,388363.054,,,
ITI,canvas.Screen,0_5_8_4,2022-07-15T22:04:54.638Z,,,,,,6,499.4760000000242,timeout,,,0.515,,,,,,,,,,,,,,,,,0.485,false,388849.700000003,388845.948,388346.991,388350.09999999404,388363.054,388862.53,,,
trial,flow.Sequence,0_5_8,2022-07-15T22:04:54.638Z,,,,,,6,3796.2729999999865,completion,,,0.515,,,,,,,,,,,,,,,,,0.485,false,388850.299999997,388845.948,385033.658,385035,385049.675,388862.53,,,
fixation,canvas.Screen,0_5_9_0,2022-07-15T22:04:55.138Z,,,,,,18,499.91499999997905,timeout,,,0.545,,,,,,,,,,,,,,,,,0.455,false,389350.09999999404,389345.383,388845.948,388850.5,388862.53,389362.445,,,
stimulus,canvas.Screen,0_5_9_1,2022-07-15T22:04:56.284Z,,,,,,18,1132.4549999910523,response,,0.545,0.545,,,https://raw.githubusercontent.com/carero2/loss-perception/main/png/0.545blue1yellowb%3D1w%3D100v%3D97.png,https://raw.githubusercontent.com/carero2/loss-perception/main/png/0.455blue1yellowb%3D1w%3D100v%3D97.png,,,,,,,,,true,j,keypress(j),0.455,0.455,false,390496.5,390494.89999999106,389345.383,389350.299999997,389362.445,390510.917,,,
choice,canvas.Screen,0_5_9_2,2022-07-15T22:04:58.282Z,,,,0.455,,18,1998.0100000000093,timeout,,,0.545,,0.545,,,9,,,,,,,-3,,,,,0.455,false,392493.700000003,392492.879,390495.961,390501.299999997,390510.917,392508.927,,97,
timeout,canvas.Screen,0_5_9_3,2022-07-15T22:04:58.283Z,,,,,,18,NaN,skipped,,,0.545,,,,,,,,,,,,,,,,,0.455,false,392495.39999999106,392492.879,,392495.09999999404,,392508.927,,,
ITI,canvas.Screen,0_5_9_4,2022-07-15T22:04:58.781Z,,,,,,18,499.51799999998184,timeout,,,0.545,,,,,,,,,,,,,,,,,0.455,false,392993.200000003,392992.39,392492.879,392495.59999999404,392508.927,393008.445,,,
trial,flow.Sequence,0_5_9,2022-07-15T22:04:58.781Z,,,,,,18,4129.859999999986,completion,,,0.545,,,,,,,,,,,,,,,,,0.455,false,392993.39999999106,392992.39,388845.948,388850.5,388862.53,393008.445,,,
fixation,canvas.Screen,0_5_10_0,2022-07-15T22:04:59.288Z,,,,,,6,499.49199999996927,timeout,,,0.545,,,,,,,,,,,,,,,,,0.515,true,393500,393491.512,392992.39,392993.59999999404,393008.445,393507.937,,,
stimulus,canvas.Screen,0_5_10_1,2022-07-15T22:05:00.342Z,,,,,,6,1044.462999991083,response,,0.515,0.545,,,https://raw.githubusercontent.com/carero2/loss-perception/main/png/0.515blue1yellowb%3D1w%3D100v%3D52.png,https://raw.githubusercontent.com/carero2/loss-perception/main/png/0.545blue1yellowb%3D1w%3D100v%3D52.png,,,,,,,,,true,f,keypress(f),0.545,0.515,true,394554.299999997,394552.39999999106,393491.512,393500.200000003,393507.937,394573.533,,,
choice,canvas.Screen,0_5_10_2,2022-07-15T22:05:02.351Z,,,,0.515,,6,1998.2399999999907,timeout,,,0.545,,0.545,,,-3,,,,,,,-6,,,,,0.515,true,396563.39999999106,396554.898,394550.7,394559.200000003,394573.533,396571.773,,94,
timeout,canvas.Screen,0_5_10_3,2022-07-15T22:05:02.353Z,,,,,,6,NaN,skipped,,,0.545,,,,,,,,,,,,,,,,,0.515,true,396565.59999999404,396554.898,,396565.200000003,,396571.773,,,
ITI,canvas.Screen,0_5_10_4,2022-07-15T22:05:02.851Z,,,,,,6,499.28800000000047,timeout,,,0.545,,,,,,,,,,,,,,,,,0.515,true,397062.89999999106,397054.395,396554.898,396565.700000003,396571.773,397071.061,,,
trial,flow.Sequence,0_5_10,2022-07-15T22:05:02.851Z,,,,,,6,4045.9500000000116,completion,,,0.545,,,,,,,,,,,,,,,,,0.515,true,397063.5,397054.395,392992.39,392993.5,393008.445,397071.061,,,
fixation,canvas.Screen,0_5_11_0,2022-07-15T22:05:03.343Z,,,,,,12,499.49400000000605,timeout,,,0.53,,,,,,,,,,,,,,,,,0.47,true,397555.200000003,397554.335,397054.395,397063.700000003,397071.061,397570.555,,,
stimulus,canvas.Screen,0_5_11_1,2022-07-15T22:05:04.328Z,,,,,,12,967.6450000029872,response,,0.47,0.53,,,https://raw.githubusercontent.com/carero2/loss-perception/main/png/0.47blue1yellowb%3D1w%3D100v%3D22.png,https://raw.githubusercontent.com/carero2/loss-perception/main/png/0.53blue1yellowb%3D1w%3D100v%3D22.png,,,,,,,,,true,f,keypress(f),0.53,0.47,true,398540.59999999404,398538.200000003,397554.335,397555.39999999106,397570.555,398552.897,,,
choice,canvas.Screen,0_5_11_2,2022-07-15T22:05:06.328Z,,,,0.47,,12,1998.0410000000265,timeout,,,0.53,,0.53,,,6,,,,,,,0,,,,,0.47,true,400540.5,400534.344,398537.102,398544.09999999404,398552.897,400550.938,,100,
timeout,canvas.Screen,0_5_11_3,2022-07-15T22:05:06.330Z,,,,,,12,NaN,skipped,,,0.53,,,,,,,,,,,,,,,,,0.47,true,400542.39999999106,400534.344,,400542.299999997,,400550.938,,,
ITI,canvas.Screen,0_5_11_4,2022-07-15T22:05:06.829Z,,,,,,12,499.4969999999739,timeout,,,0.53,,,,,,,,,,,,,,,,,0.47,true,401035.09999999404,401034.382,400534.344,400542.59999999404,400550.938,401050.435,,,
trial,flow.Sequence,0_5_11,2022-07-15T22:05:06.830Z,,,,,,12,3963.3209999999963,completion,,,0.53,,,,,,,,,,,,,,,,,0.47,true,401035.700000003,401034.382,397054.395,397063.59999999404,397071.061,401050.435,,,
fixation,canvas.Screen,0_5_12_0,2022-07-15T22:05:07.329Z,,,,,,9,499.50699999998324,timeout,,,0.485,,,,,,,,,,,,,,,,,0.53,true,401534.700000003,401533.887,401034.382,401036,401050.435,401549.942,,,
stimulus,canvas.Screen,0_5_12_1,2022-07-15T22:05:09.006Z,,,,,,9,1659.6579999940586,response,,0.53,0.485,,,https://raw.githubusercontent.com/carero2/loss-perception/main/png/0.53blue1yellowb%3D1w%3D100v%3D83.png,https://raw.githubusercontent.com/carero2/loss-perception/main/png/0.485blue1yellowb%3D1w%3D100v%3D83.png,,,,,,,,,true,j,keypress(j),0.485,0.53,true,403211.59999999404,403209.59999999404,401533.887,401535,401549.942,403231.595,,,
choice,canvas.Screen,0_5_12_2,2022-07-15T22:05:11.008Z,,,,0.485,,9,1998.00900000002,timeout,,,0.485,,0.53,,,3,,,,,,,3,,,,,0.53,true,405214.5,405213.562,403205.84,403215.39999999106,403231.595,405229.604,,103,
timeout,canvas.Screen,0_5_12_3,2022-07-15T22:05:11.011Z,,,,,,9,NaN,skipped,,,0.485,,,,,,,,,,,,,,,,,0.53,true,405216.799999997,405213.562,,405216.299999997,,405229.604,,,
ITI,canvas.Screen,0_5_12_4,2022-07-15T22:05:11.507Z,,,,,,9,499.45900000003166,timeout,,,0.485,,,,,,,,,,,,,,,,,0.53,true,405713.299999997,405712.518,405213.562,405216.89999999106,405229.604,405729.063,,,
trial,flow.Sequence,0_5_12,2022-07-15T22:05:11.508Z,,,,,,9,4662.082999999984,completion,,,0.485,,,,,,,,,,,,,,,,,0.53,true,405713.700000003,405712.518,401034.382,401035.89999999106,401050.435,405729.063,,,
fixation,canvas.Screen,0_5_13_0,2022-07-15T22:05:12.007Z,,,,,,18,499.55099999997765,timeout,,,0.545,,,,,,,,,,,,,,,,,0.455,true,406213.39999999106,406212.552,405712.518,405713.799999997,405729.063,406228.614,,,
stimulus,canvas.Screen,0_5_13_1,2022-07-15T22:05:12.849Z,,,,,,18,824.1859999970184,response,,0.455,0.545,,,https://raw.githubusercontent.com/carero2/loss-perception/main/png/0.455blue1yellowb%3D1w%3D100v%3D49.png,https://raw.githubusercontent.com/carero2/loss-perception/main/png/0.545blue1yellowb%3D1w%3D100v%3D49.png,,,,,,,,,true,f,keypress(f),0.545,0.455,true,407054.799999997,407052.799999997,406212.552,406213.59999999404,406228.614,407061.129,,,
choice,canvas.Screen,0_5_13_2,2022-07-15T22:05:14.838Z,,,,0.455,,18,1998.0050000000047,timeout,,,0.545,,0.545,,,9,,,,,,,12,,,,,0.455,true,409043.89999999106,409043.08,407045.822,407058.39999999106,407061.129,409059.134,,112,
timeout,canvas.Screen,0_5_13_3,2022-07-15T22:05:14.840Z,,,,,,18,NaN,skipped,,,0.545,,,,,,,,,,,,,,,,,0.455,true,409046.39999999106,409043.08,,409046.09999999404,,409059.134,,,
ITI,canvas.Screen,0_5_13_4,2022-07-15T22:05:15.337Z,,,,,,18,499.50699999998324,timeout,,,0.545,,,,,,,,,,,,,,,,,0.455,true,409543.39999999106,409542.577,409043.08,409046.59999999404,409059.134,409558.641,,,
trial,flow.Sequence,0_5_13,2022-07-15T22:05:15.338Z,,,,,,18,3813.5139999999665,completion,,,0.545,,,,,,,,,,,,,,,,,0.455,true,409543.799999997,409542.577,405712.518,405713.799999997,405729.063,409558.641,,,
fixation,canvas.Screen,0_5_14_0,2022-07-15T22:05:15.841Z,,,,,,6,499.4990000000107,timeout,,,0.485,,,,,,,,,,,,,,,,,0.455,false,410047.39999999106,410041.535,409542.577,409544,409558.641,410058.14,,,
stimulus,canvas.Screen,0_5_14_1,2022-07-15T22:05:16.925Z,,,,,,6,1071.0600000029663,response,,0.485,0.485,,,https://raw.githubusercontent.com/carero2/loss-perception/main/png/0.485blue1yellowb%3D1w%3D100v%3D78.png,https://raw.githubusercontent.com/carero2/loss-perception/main/png/0.455blue1yellowb%3D1w%3D100v%3D78.png,,,,,,,,,true,j,keypress(j),0.455,0.455,false,411131.299999997,411129.200000003,410041.535,410047.799999997,410058.14,411140.384,,,
choice,canvas.Screen,0_5_14_2,2022-07-15T22:05:18.922Z,,,,0.455,,6,1998.0189999999711,timeout,,,0.485,,0.485,,,9,,,,,,,21,,,,,0.455,false,413128,413121.806,411134.441,411135.39999999106,411140.384,413138.403,,121,
timeout,canvas.Screen,0_5_14_3,2022-07-15T22:05:18.924Z,,,,,,6,NaN,skipped,,,0.485,,,,,,,,,,,,,,,,,0.455,false,413130.299999997,413121.806,,413130,,413138.403,,,
ITI,canvas.Screen,0_5_14_4,2022-07-15T22:05:19.417Z,,,,,,6,499.55100000003586,timeout,,,0.485,,,,,,,,,,,,,,,,,0.455,false,413622.700000003,413621.855,413121.806,413130.39999999106,413138.403,413637.954,,,
trial,flow.Sequence,0_5_14,2022-07-15T22:05:19.417Z,,,,,,6,4063.213999999978,completion,,,0.485,,,,,,,,,,,,,,,,,0.455,false,413623,413621.855,409542.577,409543.89999999106,409558.641,413637.954,,,
fixation,canvas.Screen,0_5_15_0,2022-07-15T22:05:19.923Z,,,,,,6,499.4289999999455,timeout,,,0.515,,,,,,,,,,,,,,,,,0.485,true,414129.200000003,414120.762,413621.855,413623.200000003,413637.954,414137.383,,,
stimulus,canvas.Screen,0_5_15_1,2022-07-15T22:05:20.689Z,,,,,,6,755.9169999970472,response,,0.485,0.515,,,https://raw.githubusercontent.com/carero2/loss-perception/main/png/0.485blue1yellowb%3D1w%3D100v%3D43.png,https://raw.githubusercontent.com/carero2/loss-perception/main/png/0.515blue1yellowb%3D1w%3D100v%3D43.png,,,,,,,,,true,f,keypress(f),0.515,0.485,true,414895,414893.299999997,414120.762,414129.39999999106,414137.383,414903.325,,,
choice,canvas.Screen,0_5_15_2,2022-07-15T22:05:22.687Z,,,,0.485,,6,1998.1109999999753,timeout,,,0.515,,0.515,,,3,,,,,,,24,,,,,0.485,true,416893.200000003,416884.713,414887.029,414898.5,414903.325,416901.436,,124,
timeout,canvas.Screen,0_5_15_3,2022-07-15T22:05:22.689Z,,,,,,6,NaN,skipped,,,0.515,,,,,,,,,,,,,,,,,0.485,true,416895.299999997,416884.713,,416894.89999999106,,416901.436,,,
ITI,canvas.Screen,0_5_15_4,2022-07-15T22:05:23.179Z,,,,,,6,499.34500000003027,timeout,,,0.515,,,,,,,,,,,,,,,,,0.485,true,417385.5,417384.783,416884.713,416895.5,416901.436,417400.781,,,
trial,flow.Sequence,0_5_15,2022-07-15T22:05:23.180Z,,,,,,6,3746.828999999969,completion,,,0.515,,,,,,,,,,,,,,,,,0.485,true,417385.700000003,417384.783,413621.855,413623.200000003,413637.954,417400.781,,,
fixation,canvas.Screen,0_5_16_0,2022-07-15T22:05:23.684Z,,,,,,6,499.5669999999809,timeout,,,0.545,,,,,,,,,,,,,,,,,0.515,false,417889.700000003,417883.744,417384.783,417385.89999999106,417400.781,417900.348,,,
stimulus,canvas.Screen,0_5_16_1,2022-07-15T22:05:24.505Z,,,,,,6,809.6520000000019,response,,0.545,0.545,,,https://raw.githubusercontent.com/carero2/loss-perception/main/png/0.545blue1yellowb%3D1w%3D100v%3D20.png,https://raw.githubusercontent.com/carero2/loss-perception/main/png/0.515blue1yellowb%3D1w%3D100v%3D20.png,,,,,,,,,true,j,keypress(j),0.515,0.515,false,418711.200000003,418710,417883.744,417889.89999999106,417900.348,418747.881,,,
choice,canvas.Screen,0_5_16_2,2022-07-15T22:05:26.531Z,,,,0.515,,6,1999.63400000002,timeout,,,0.545,,0.545,,,-3,,,,,,,21,,,,,0.515,false,420736.799999997,420730.925,418703.55,418714.799999997,418747.881,420747.515,,121,
timeout,canvas.Screen,0_5_16_3,2022-07-15T22:05:26.533Z,,,,,,6,NaN,skipped,,,0.545,,,,,,,,,,,,,,,,,0.515,false,420738.799999997,420730.925,,420738.700000003,,420747.515,,,
ITI,canvas.Screen,0_5_16_4,2022-07-15T22:05:27.026Z,,,,,,6,499.43599999998696,timeout,,,0.545,,,,,,,,,,,,,,,,,0.515,false,421231.700000003,421230.964,420730.925,420739,420747.515,421246.951,,,
trial,flow.Sequence,0_5_16,2022-07-15T22:05:27.026Z,,,,,,6,3830.182999999961,completion,,,0.545,,,,,,,,,,,,,,,,,0.515,false,421232.09999999404,421230.964,417384.783,417385.89999999106,417400.781,421246.951,,,
fixation,canvas.Screen,0_5_17_0,2022-07-15T22:05:27.525Z,,,,,,12,499.570000000007,timeout,,,0.53,,,,,,,,,,,,,,,,,0.47,false,421731.299999997,421730.463,421230.964,421232.299999997,421246.951,421746.521,,,
stimulus,canvas.Screen,0_5_17_1,2022-07-15T22:05:28.444Z,,,,,,12,900.4789999999921,response,,0.53,0.53,,,https://raw.githubusercontent.com/carero2/loss-perception/main/png/0.53blue1yellowb%3D1w%3D100v%3D18.png,https://raw.githubusercontent.com/carero2/loss-perception/main/png/0.47blue1yellowb%3D1w%3D100v%3D18.png,,,,,,,,,true,j,keypress(j),0.47,0.47,false,422650.200000003,422647,421730.463,421731.39999999106,421746.521,422662.616,,,
choice,canvas.Screen,0_5_17_2,2022-07-15T22:05:30.447Z,,,,0.47,,12,1997.6540000000386,timeout,,,0.53,,0.53,,,6,,,,,,,27,,,,,0.47,false,424653.299999997,424643.846,422647.04,422657.89999999106,422662.616,424660.27,,127,
timeout,canvas.Screen,0_5_17_3,2022-07-15T22:05:30.450Z,,,,,,12,NaN,skipped,,,0.53,,,,,,,,,,,,,,,,,0.47,false,424656,424643.846,,424655.59999999404,,424660.27,,,
ITI,canvas.Screen,0_5_17_4,2022-07-15T22:05:30.946Z,,,,,,12,499.5119999999879,timeout,,,0.53,,,,,,,,,,,,,,,,,0.47,false,425151.700000003,425143.191,424643.846,424656.299999997,424660.27,425159.782,,,
trial,flow.Sequence,0_5_17,2022-07-15T22:05:30.946Z,,,,,,12,3896.2399999999907,completion,,,0.53,,,,,,,,,,,,,,,,,0.47,false,425151.89999999106,425143.191,421230.964,421232.200000003,421246.951,425159.782,,,
fixation,canvas.Screen,0_5_18_0,2022-07-15T22:05:31.437Z,,,,,,18,500.0650000000023,timeout,,,0.545,,,,,,,,,,,,,,,,,0.455,false,425643.5,425642.635,425143.191,425152.09999999404,425159.782,425659.847,,,
stimulus,canvas.Screen,0_5_18_1,2022-07-15T22:05:32.115Z,,,,,,18,659.4529999970109,response,,0.545,0.545,,,https://raw.githubusercontent.com/carero2/loss-perception/main/png/0.545blue1yellowb%3D1w%3D100v%3D97.png,https://raw.githubusercontent.com/carero2/loss-perception/main/png/0.455blue1yellowb%3D1w%3D100v%3D97.png,,,,,,,,,true,j,keypress(j),0.455,0.455,false,426320.700000003,426319.299999997,425642.635,425643.799999997,425659.847,426342.383,,,
choice,canvas.Screen,0_5_18_2,2022-07-15T22:05:34.124Z,,,,0.455,,18,1997.5800000000163,timeout,,,0.545,,0.545,,,9,,,,,,,36,,,,,0.455,false,428329.89999999106,428323.364,426314.579,426324.200000003,426342.383,428339.963,,136,
timeout,canvas.Screen,0_5_18_3,2022-07-15T22:05:34.126Z,,,,,,18,NaN,skipped,,,0.545,,,,,,,,,,,,,,,,,0.455,false,428332,428323.364,,428331.59999999404,,428339.963,,,
ITI,canvas.Screen,0_5_18_4,2022-07-15T22:05:34.618Z,,,,,,18,499.5100000000093,timeout,,,0.545,,,,,,,,,,,,,,,,,0.455,false,428824.200000003,428823.407,428323.364,428332.09999999404,428339.963,428839.473,,,
trial,flow.Sequence,0_5_18,2022-07-15T22:05:34.618Z,,,,,,18,3663.625,completion,,,0.545,,,,,,,,,,,,,,,,,0.455,false,428824.5,428823.407,425143.191,425152,425159.782,428839.473,,,
fixation,canvas.Screen,0_5_19_0,2022-07-15T22:05:35.118Z,,,,,,6,499.49400000000605,timeout,,,0.485,,,,,,,,,,,,,,,,,0.455,true,429323.59999999404,429322.874,428823.407,428824.799999997,428839.473,429338.967,,,
stimulus,canvas.Screen,0_5_19_1,2022-07-15T22:05:36.186Z,,,,,,6,1050.733000002976,response,,0.455,0.485,,,https://raw.githubusercontent.com/carero2/loss-perception/main/png/0.455blue1yellowb%3D1w%3D100v%3D96.png,https://raw.githubusercontent.com/carero2/loss-perception/main/png/0.485blue1yellowb%3D1w%3D100v%3D96.png,,,,,,,,,true,f,keypress(f),0.485,0.455,true,430391.89999999106,430389.700000003,429322.874,429323.799999997,429338.967,430404.557,,,
choice,canvas.Screen,0_5_19_2,2022-07-15T22:05:38.181Z,,,,0.455,,6,1998.0310000000172,timeout,,,0.485,,0.485,,,9,,,,,,,45,,,,,0.455,true,432387.39999999106,432386.556,430388.091,430395.5,430404.557,432402.588,,145,
timeout,canvas.Screen,0_5_19_3,2022-07-15T22:05:38.183Z,,,,,,6,NaN,skipped,,,0.485,,,,,,,,,,,,,,,,,0.455,true,432389.39999999106,432386.556,,432389.09999999404,,432402.588,,,
ITI,canvas.Screen,0_5_19_4,2022-07-15T22:05:38.681Z,,,,,,6,499.4340000000084,timeout,,,0.485,,,,,,,,,,,,,,,,,0.455,true,432886.89999999106,432886.027,432386.556,432389.59999999404,432402.588,432902.022,,,
trial,flow.Sequence,0_5_19,2022-07-15T22:05:38.681Z,,,,,,6,4046.5540000000037,completion,,,0.485,,,,,,,,,,,,,,,,,0.455,true,432887.200000003,432886.027,428823.407,428824.799999997,428839.473,432902.022,,,
fixation,canvas.Screen,0_5_20_0,2022-07-15T22:05:39.180Z,,,,,,9,499.5690000000177,timeout,,,0.485,,,,,,,,,,,,,,,,,0.53,false,433386,433384.966,432886.027,432887.39999999106,432902.022,433401.591,,,
stimulus,canvas.Screen,0_5_20_1,2022-07-15T22:05:39.845Z,,,,,,9,647.6090000029653,response,,0.485,0.485,,,https://raw.githubusercontent.com/carero2/loss-perception/main/png/0.485blue1yellowb%3D1w%3D100v%3D91.png,https://raw.githubusercontent.com/carero2/loss-perception/main/png/0.53blue1yellowb%3D1w%3D100v%3D91.png,,,,,,,,,true,f,keypress(f),0.53,0.53,false,434050.89999999106,434049.200000003,433384.966,433386.200000003,433401.591,434067.602,,,
choice,canvas.Screen,0_5_20_2,2022-07-15T22:05:41.844Z,,,,0.485,,9,1998.0109999999986,timeout,,,0.485,,0.53,,,3,,,,,,,48,,,,,0.53,false,436050.299999997,436049.542,434054.104,434054.39999999106,434067.602,436065.613,,148,
timeout,canvas.Screen,0_5_20_3,2022-07-15T22:05:41.846Z,,,,,,9,NaN,skipped,,,0.485,,,,,,,,,,,,,,,,,0.53,false,436052.59999999404,436049.542,,436052.200000003,,436065.613,,,
ITI,canvas.Screen,0_5_20_4,2022-07-15T22:05:42.344Z,,,,,,9,499.45899999997346,timeout,,,0.485,,,,,,,,,,,,,,,,,0.53,false,436549.89999999106,436549.054,436049.542,436052.799999997,436065.613,436565.072,,,
trial,flow.Sequence,0_5_20,2022-07-15T22:05:42.344Z,,,,,,9,3647.0320000000065,completion,,,0.485,,,,,,,,,,,,,,,,,0.53,false,436550.200000003,436549.054,432886.027,432887.39999999106,432902.022,436565.072,,,
fixation,canvas.Screen,0_5_21_0,2022-07-15T22:05:42.843Z,,,,,,6,499.55100000003586,timeout,,,0.545,,,,,,,,,,,,,,,,,0.515,true,437049.299999997,437048.516,436549.054,436550.39999999106,436565.072,437064.623,,,
stimulus,canvas.Screen,0_5_21_1,2022-07-15T22:05:44.064Z,,,,,,6,1203.6769999969983,response,,0.515,0.545,,,https://raw.githubusercontent.com/carero2/loss-perception/main/png/0.515blue1yellowb%3D1w%3D100v%3D88.png,https://raw.githubusercontent.com/carero2/loss-perception/main/png/0.545blue1yellowb%3D1w%3D100v%3D88.png,,,,,,,,,true,f,keypress(f),0.545,0.515,true,438270.299999997,438268.299999997,437048.516,437049.5,437064.623,438280.072,,,
choice,canvas.Screen,0_5_21_2,2022-07-15T22:05:46.057Z,,,,0.515,,6,1998.015000000014,timeout,,,0.545,,0.545,,,-3,,,,,,,45,,,,,0.515,true,440262.89999999106,440262.037,438265.212,438274,438280.072,440278.087,,145,
timeout,canvas.Screen,0_5_21_3,2022-07-15T22:05:46.059Z,,,,,,6,NaN,skipped,,,0.545,,,,,,,,,,,,,,,,,0.515,true,440265,440262.037,,440264.700000003,,440278.087,,,
ITI,canvas.Screen,0_5_21_4,2022-07-15T22:05:46.556Z,,,,,,6,499.54999999998836,timeout,,,0.545,,,,,,,,,,,,,,,,,0.515,true,440762.200000003,440761.432,440262.037,440265.200000003,440278.087,440777.637,,,
trial,flow.Sequence,0_5_21,2022-07-15T22:05:46.557Z,,,,,,6,4196.359999999986,completion,,,0.545,,,,,,,,,,,,,,,,,0.515,true,440762.59999999404,440761.432,436549.054,436550.299999997,436565.072,440777.637,,,
fixation,canvas.Screen,0_5_22_0,2022-07-15T22:05:47.064Z,,,,,,6,499.46100000001024,timeout,,,0.515,,,,,,,,,,,,,,,,,0.485,false,441270.200000003,441260.756,440761.432,440762.700000003,440777.637,441277.098,,,
stimulus,canvas.Screen,0_5_22_1,2022-07-15T22:05:48.155Z,,,,,,6,1082.4020000000019,response,,0.515,0.515,,,https://raw.githubusercontent.com/carero2/loss-perception/main/png/0.515blue1yellowb%3D1w%3D100v%3D24.png,https://raw.githubusercontent.com/carero2/loss-perception/main/png/0.485blue1yellowb%3D1w%3D100v%3D24.png,,,,,,,,,true,j,keypress(j),0.485,0.485,false,442360.89999999106,442359.5,441260.756,441270.5,441277.098,442375.99,,,
choice,canvas.Screen,0_5_22_2,2022-07-15T22:05:50.157Z,,,,0.485,,6,1998.0219999999972,timeout,,,0.515,,0.515,,,3,,,,,,,48,,,,,0.485,false,444363.200000003,444357.427,442353.562,442364.299999997,442375.99,444374.012,,148,
timeout,canvas.Screen,0_5_22_3,2022-07-15T22:05:50.159Z,,,,,,6,NaN,skipped,,,0.515,,,,,,,,,,,,,,,,,0.485,false,444365.200000003,444357.427,,444365,,444374.012,,,
ITI,canvas.Screen,0_5_22_4,2022-07-15T22:05:50.659Z,,,,,,6,499.5320000000065,timeout,,,0.515,,,,,,,,,,,,,,,,,0.485,false,444865.39999999106,444856.867,444357.427,444365.299999997,444374.012,444873.544,,,
trial,flow.Sequence,0_5_22,2022-07-15T22:05:50.660Z,,,,,,6,4079.2300000000396,completion,,,0.515,,,,,,,,,,,,,,,,,0.485,false,444865.700000003,444856.867,440761.432,440762.700000003,440777.637,444873.544,,,
fixation,canvas.Screen,0_5_23_0,2022-07-15T22:05:51.152Z,,,,,,12,499.4340000000084,timeout,,,0.53,,,,,,,,,,,,,,,,,0.47,true,445357.700000003,445356.907,444856.867,444865.799999997,444873.544,445372.978,,,
stimulus,canvas.Screen,0_5_23_1,2022-07-15T22:05:52.538Z,,,,,,12,1369.2220000029774,response,,0.47,0.53,,,https://raw.githubusercontent.com/carero2/loss-perception/main/png/0.47blue1yellowb%3D1w%3D100v%3D81.png,https://raw.githubusercontent.com/carero2/loss-perception/main/png/0.53blue1yellowb%3D1w%3D100v%3D81.png,,,,,,,,,true,f,keypress(f),0.53,0.47,true,446744.5,446742.200000003,445356.907,445357.799999997,445372.978,446754.971,,,
choice,canvas.Screen,0_5_23_2,2022-07-15T22:05:54.532Z,,,,0.47,,12,1998.0229999999865,timeout,,,0.53,,0.53,,,6,,,,,,,54,,,,,0.47,true,448737.700000003,448736.941,446739.018,446751.09999999404,446754.971,448752.994,,154,
timeout,canvas.Screen,0_5_23_3,2022-07-15T22:05:54.533Z,,,,,,12,NaN,skipped,,,0.53,,,,,,,,,,,,,,,,,0.47,true,448739.5,448736.941,,448739.200000003,,448752.994,,,
ITI,canvas.Screen,0_5_23_4,2022-07-15T22:05:55.031Z,,,,,,12,499.5129999999772,timeout,,,0.53,,,,,,,,,,,,,,,,,0.47,true,449236.700000003,449235.902,448736.941,448739.59999999404,448752.994,449252.507,,,
trial,flow.Sequence,0_5_23,2022-07-15T22:05:55.031Z,,,,,,12,4362.358000000007,completion,,,0.53,,,,,,,,,,,,,,,,,0.47,true,449236.89999999106,449235.902,444856.867,444865.799999997,444873.544,449252.507,,,
pratice,flow.Loop,0_5,2022-07-15T22:05:55.031Z,,,,,,,100766.48300000001,completion,,,,,,,,,,,,,,,,,,,,,,449237.200000003,449235.902,348462.553,348467.39999999106,348469.419,449252.507,,,
show amount,html.Screen,0_6,2022-07-15T22:06:11.316Z,,,,,,,16268.993000000017,response,,,,,,,,,,,,,,,,,Continue,click #Continue,,,,465525.299999997,465521.5,449235.902,449238.59999999404,449252.507,465536.278,,,
first block,canvas.Screen,0_7,2022-07-15T22:06:15.752Z,,,,,,,4422.422000002989,response,,,,,,,,,,,,,,,,,space,keypress(Space),,,,469960.89999999106,469958.700000003,465519.724,465525.5,465536.278,469965.234,,,
fixation,canvas.Screen,0_8_0_0,2022-07-15T22:06:16.240Z,,,,,,6,699.3340000000317,timeout,,,0.515,,,,,,,,,,,,,,,,,0.485,true,470449.5,470448.692,469950.207,469961.299999997,469965.234,470664.568,,,
stimulus,canvas.Screen,0_8_0_1,2022-07-15T22:06:17.955Z,,,,,,6,1498.0319999940111,response,,0.485,0.515,,,https://raw.githubusercontent.com/carero2/loss-perception/main/png/0.485blue1yellowb%3D1w%3D100v%3D66.png,https://raw.githubusercontent.com/carero2/loss-perception/main/png/0.515blue1yellowb%3D1w%3D100v%3D66.png,,,,,,,,,true,f,keypress(f),0.515,0.485,true,472164.299999997,472162.59999999404,470448.692,470681,470664.568,472213.605,,,
choice,canvas.Screen,0_8_0_2,2022-07-15T22:06:18.988Z,,,,0.485,,6,998.7730000000447,timeout,,,0.515,,0.515,,,3,3,,,,,,,,,,,0.485,true,473196.700000003,473195.922,472181.556,472197.39999999106,472213.605,473212.378,103,,
ITI,canvas.Screen,0_8_0_3,2022-07-15T22:06:19.487Z,,,2445,,,6,499.1329999999725,timeout,,,0.515,,,,,,,,,,,,,,,,,0.485,true,473696.09999999404,473694.898,473195.922,473197,473212.378,473711.511,,,
trial,flow.Sequence,0_8_0,2022-07-15T22:06:19.487Z,,,,,,6,3729.6639999999898,completion,,,0.515,,,,,,,,,,,,,,,,,0.485,true,473696.59999999404,473694.898,469950.207,469961.299999997,469965.234,473711.511,,,
fixation,canvas.Screen,0_8_1_0,2022-07-15T22:06:19.986Z,,,,,,2,699.8279999999795,timeout,,,0.495,,,,,,,,,,,,,,,,,0.485,true,474195.09999999404,474194.411,473694.898,473696.89999999106,473711.511,474411.339,,,
stimulus,canvas.Screen,0_8_1_1,2022-07-15T22:06:21.478Z,,,,,,2,1274.1610000000219,response,,0.485,0.495,,,https://raw.githubusercontent.com/carero2/loss-perception/main/png/0.485blue1yellowb%3D1w%3D100v%3D32.png,https://raw.githubusercontent.com/carero2/loss-perception/main/png/0.495blue1yellowb%3D1w%3D100v%3D32.png,,,,,,,,,true,j,keypress(j),0.495,0.485,true,475687.299999997,475685.5,474194.411,474424.59999999404,474411.339,475742.838,,,
choice,canvas.Screen,0_8_1_2,2022-07-15T22:06:22.517Z,,,,0.495,,2,999.0050000000047,timeout,,,0.495,,0.485,,,1,4,,,,,,,,,,,0.485,true,476726.59999999404,476725.775,475713.043,475726,475742.838,476741.843,104,,
ITI,canvas.Screen,0_8_1_3,2022-07-15T22:06:23.017Z,,,2481,,,2,499.4870000000228,timeout,,,0.495,,,,,,,,,,,,,,,,,0.485,true,477225.89999999106,477225.187,476725.775,476726.799999997,476741.843,477241.33,,,
trial,flow.Sequence,0_8_1,2022-07-15T22:06:23.017Z,,,,,,2,3513.6759999999776,completion,,,0.495,,,,,,,,,,,,,,,,,0.485,true,477226.799999997,477225.187,473694.898,473696.89999999106,473711.511,477241.33,,,
fixation,canvas.Screen,0_8_2_0,2022-07-15T22:06:23.516Z,,,,,,4,716.0219999999972,timeout,,,0.49,,,,,,,,,,,,,,,,,0.47,false,477725.39999999106,477724.65,477225.187,477227,477241.33,477957.352,,,
stimulus,canvas.Screen,0_8_2_1,2022-07-15T22:06:25.315Z,,,,,,4,1565.5479999910458,response,,0.49,0.49,,,https://raw.githubusercontent.com/carero2/loss-perception/main/png/0.49blue1yellowb%3D1w%3D100v%3D72.png,https://raw.githubusercontent.com/carero2/loss-perception/main/png/0.47blue1yellowb%3D1w%3D100v%3D72.png,,,,,,,,,true,j,keypress(j),0.47,0.47,false,479524.299999997,479522.89999999106,477724.65,477970.799999997,477957.352,479555.722,,,
choice,canvas.Screen,0_8_2_2,2022-07-15T22:06:26.337Z,,,,0.47,,4,998.890000000014,timeout,,,0.49,,0.49,,,6,10,,,,,,,,,,,0.47,false,480546.5,480538.043,479538.54,479552.700000003,479555.722,480554.612,110,,
ITI,canvas.Screen,0_8_2_3,2022-07-15T22:06:26.830Z,,,2225,,,4,499.60699999995995,timeout,,,0.49,,,,,,,,,,,,,,,,,0.47,false,481039.5,481038.174,480538.043,480546.799999997,480554.612,481054.219,,,
trial,flow.Sequence,0_8_2,2022-07-15T22:06:26.831Z,,,,,,4,3796.8439999999828,completion,,,0.49,,,,,,,,,,,,,,,,,0.47,false,481039.89999999106,481038.174,477225.187,477226.89999999106,477241.33,481054.219,,,
fixation,canvas.Screen,0_8_3_0,2022-07-15T22:06:27.329Z,,,,,,6,716.5570000000298,timeout,,,0.485,,,,,,,,,,,,,,,,,0.455,true,481538.39999999106,481537.644,481038.174,481040.200000003,481054.219,481770.776,,,
stimulus,canvas.Screen,0_8_3_1,2022-07-15T22:06:28.565Z,,,,,,6,1001.6239999910467,response,,0.455,0.485,,,https://raw.githubusercontent.com/carero2/loss-perception/main/png/0.455blue1yellowb%3D1w%3D100v%3D100.png,https://raw.githubusercontent.com/carero2/loss-perception/main/png/0.485blue1yellowb%3D1w%3D100v%3D100.png,,,,,,,,,true,f,keypress(f),0.485,0.455,true,482773.799999997,482772.39999999106,481537.644,481784.700000003,481770.776,482819.061,,,
choice,canvas.Screen,0_8_3_2,2022-07-15T22:06:29.594Z,,,,0.455,,6,999.0780000000377,timeout,,,0.485,,0.485,,,9,19,,,,,,,,,,,0.455,true,483802.89999999106,483802.099,482802.826,482804.09999999404,482819.061,483818.139,119,,
ITI,canvas.Screen,0_8_3_3,2022-07-15T22:06:30.100Z,,,2884,,,6,499.9569999999949,timeout,,,0.485,,,,,,,,,,,,,,,,,0.455,true,484309.700000003,484301.222,483802.099,483803.700000003,483818.139,484318.096,,,
trial,flow.Sequence,0_8_3,2022-07-15T22:06:30.101Z,,,,,,6,3247.003000000026,completion,,,0.485,,,,,,,,,,,,,,,,,0.455,true,484310,484301.222,481038.174,481040.09999999404,481054.219,484318.096,,,
fixation,canvas.Screen,0_8_4_0,2022-07-15T22:06:30.600Z,,,,,,2,715.4959999999846,timeout,,,0.515,,,,,,,,,,,,,,,,,0.505,true,484809.299999997,484800.617,484301.222,484310.200000003,484318.096,485033.592,,,
stimulus,canvas.Screen,0_8_4_1,2022-07-15T22:06:31.770Z,,,,,,2,943.9079999999958,response,,0.505,0.515,,,https://raw.githubusercontent.com/carero2/loss-perception/main/png/0.505blue1yellowb%3D1w%3D100v%3D78.png,https://raw.githubusercontent.com/carero2/loss-perception/main/png/0.515blue1yellowb%3D1w%3D100v%3D78.png,,,,,,,,,true,j,keypress(j),0.515,0.505,true,485979.5,485977.5,484800.617,485047.700000003,485033.592,486032.544,,,
choice,canvas.Screen,0_8_4_2,2022-07-15T22:06:32.814Z,,,,0.515,,2,998.9739999999874,timeout,,,0.515,,0.505,,,-3,16,,,,,,,,,,,0.505,true,487023.700000003,487015.221,486017.212,486026.799999997,486032.544,487031.518,116,,
ITI,canvas.Screen,0_8_4_3,2022-07-15T22:06:33.306Z,,,2347,,,2,499.6380000000354,timeout,,,0.515,,,,,,,,,,,,,,,,,0.505,true,487515.700000003,487514.932,487015.221,487023.89999999106,487031.518,487531.156,,,
trial,flow.Sequence,0_8_4,2022-07-15T22:06:33.307Z,,,,,,2,3196.835999999952,completion,,,0.515,,,,,,,,,,,,,,,,,0.505,true,487516,487514.932,484301.222,484310.200000003,484318.096,487531.156,,,
fixation,canvas.Screen,0_8_5_0,2022-07-15T22:06:33.806Z,,,,,,4,716.5079999999725,timeout,,,0.53,,,,,,,,,,,,,,,,,0.51,true,488015.299999997,488014.534,487514.932,487516.200000003,487531.156,488247.664,,,
stimulus,canvas.Screen,0_8_5_1,2022-07-15T22:06:35.580Z,,,,,,4,1539.13599999703,response,,0.51,0.53,,,https://raw.githubusercontent.com/carero2/loss-perception/main/png/0.51blue1yellowb%3D1w%3D100v%3D3.png,https://raw.githubusercontent.com/carero2/loss-perception/main/png/0.53blue1yellowb%3D1w%3D100v%3D3.png,,,,,,,,,true,f,keypress(f),0.53,0.51,true,489788.799999997,489786.799999997,488014.534,488261.09999999404,488247.664,489845.448,,,
choice,canvas.Screen,0_8_5_2,2022-07-15T22:06:36.620Z,,,,0.51,,4,999.1790000000037,timeout,,,0.53,,0.53,,,-2,14,,,,,,,,,,,0.51,true,490829.299999997,490828.407,489832.896,489835,489845.448,490844.627,114,,
ITI,canvas.Screen,0_8_5_3,2022-07-15T22:06:37.120Z,,,2574,,,4,499.3500000000349,timeout,,,0.53,,,,,,,,,,,,,,,,,0.51,true,491328.89999999106,491327.931,490828.407,490829.39999999106,490844.627,491343.977,,,
trial,flow.Sequence,0_8_5,2022-07-15T22:06:37.120Z,,,,,,4,3796.774999999965,completion,,,0.53,,,,,,,,,,,,,,,,,0.51,true,491329.200000003,491327.931,487514.932,487516.09999999404,487531.156,491343.977,,,
fixation,canvas.Screen,0_8_6_0,2022-07-15T22:06:37.628Z,,,,,,6,1015.6410000000033,timeout,,,0.545,,,,,,,,,,,,,,,,,0.515,false,491837.39999999106,491826.797,491327.931,491329.39999999106,491343.977,492359.618,,,
stimulus,canvas.Screen,0_8_6_1,2022-07-15T22:06:38.907Z,,,,,,6,754.2819999910425,response,,0.545,0.545,,,https://raw.githubusercontent.com/carero2/loss-perception/main/png/0.545blue1yellowb%3D1w%3D100v%3D9.png,https://raw.githubusercontent.com/carero2/loss-perception/main/png/0.515blue1yellowb%3D1w%3D100v%3D9.png,,,,,,,,,true,j,keypress(j),0.515,0.515,false,493116.200000003,493113.89999999106,491826.797,492373.09999999404,492359.618,493175.465,,,
choice,canvas.Screen,0_8_6_2,2022-07-15T22:06:39.950Z,,,,0.515,,6,999.039999999979,timeout,,,0.545,,0.545,,,-3,11,,,,,,,,,,,0.515,false,494159.299999997,494158.444,493141.681,493145.39999999106,493175.465,494174.505,111,,
ITI,canvas.Screen,0_8_6_3,2022-07-15T22:06:40.450Z,,,2502,,,6,499.51699999999255,timeout,,,0.545,,,,,,,,,,,,,,,,,0.515,false,494658.799999997,494657.944,494158.444,494159.5,494174.505,494674.022,,,
trial,flow.Sequence,0_8_6,2022-07-15T22:06:40.450Z,,,,,,6,3313.967000000004,completion,,,0.545,,,,,,,,,,,,,,,,,0.515,false,494659.200000003,494657.944,491327.931,491329.299999997,491343.977,494674.022,,,
fixation,canvas.Screen,0_8_7_0,2022-07-15T22:06:40.949Z,,,,,,2,682.6479999999865,timeout,,,0.505,,,,,,,,,,,,,,,,,0.495,true,495158.299999997,495157.436,494657.944,494659.299999997,494674.022,495356.67,,,
stimulus,canvas.Screen,0_8_7_1,2022-07-15T22:06:42.950Z,,,,,,2,1800.629999997036,response,,0.495,0.505,,,https://raw.githubusercontent.com/carero2/loss-perception/main/png/0.495blue1yellowb%3D1w%3D100v%3D32.png,https://raw.githubusercontent.com/carero2/loss-perception/main/png/0.505blue1yellowb%3D1w%3D100v%3D32.png,,,,,,,,,true,f,keypress(f),0.505,0.495,true,497158.89999999106,497157.299999997,495157.436,495374.39999999106,495356.67,497204.767,,,
choice,canvas.Screen,0_8_7_2,2022-07-15T22:06:43.979Z,,,,0.495,,2,998.984999999986,timeout,,,0.505,,0.505,,,1,12,,,,,,,,,,,0.495,true,498188.59999999404,498187.774,497188.798,497189.5,497204.767,498203.752,112,,
ITI,canvas.Screen,0_8_7_3,2022-07-15T22:06:44.487Z,,,2514,,,2,499.56400000001304,timeout,,,0.505,,,,,,,,,,,,,,,,,0.495,true,498695.799999997,498686.978,498187.774,498188.799999997,498203.752,498703.316,,,
trial,flow.Sequence,0_8_7,2022-07-15T22:06:44.487Z,,,,,,2,4012.9560000000056,completion,,,0.505,,,,,,,,,,,,,,,,,0.495,true,498696.59999999404,498686.978,494657.944,494659.299999997,494674.022,498703.316,,,
fixation,canvas.Screen,0_8_8_0,2022-07-15T22:06:44.978Z,,,,,,4,715.9459999999963,timeout,,,0.51,,,,,,,,,,,,,,,,,0.49,false,499187,499186.226,498686.978,498696.89999999106,498703.316,499419.262,,,
stimulus,canvas.Screen,0_8_8_1,2022-07-15T22:06:46.313Z,,,,,,4,1101.738000000012,response,,0.51,0.51,,,https://raw.githubusercontent.com/carero2/loss-perception/main/png/0.51blue1yellowb%3D1w%3D100v%3D15.png,https://raw.githubusercontent.com/carero2/loss-perception/main/png/0.49blue1yellowb%3D1w%3D100v%3D15.png,,,,,,,,,true,j,keypress(j),0.49,0.49,false,500522.299999997,500521,499186.226,499433.39999999106,499419.262,500568.079,,,
choice,canvas.Screen,0_8_8_2,2022-07-15T22:06:47.343Z,,,,0.49,,4,999.0649999999441,timeout,,,0.51,,0.51,,,2,14,,,,,,,,,,,0.49,false,501552.09999999404,501551.086,500552.896,500553,500568.079,501567.144,114,,
ITI,canvas.Screen,0_8_8_3,2022-07-15T22:06:47.847Z,,,2462,,,4,499.49700000003213,timeout,,,0.51,,,,,,,,,,,,,,,,,0.49,false,502056.09999999404,502050.043,501551.086,501552.39999999106,501567.144,502066.641,,,
trial,flow.Sequence,0_8_8,2022-07-15T22:06:47.847Z,,,,,,4,3346.7270000000135,completion,,,0.51,,,,,,,,,,,,,,,,,0.49,false,502056.59999999404,502050.043,498686.978,498696.89999999106,498703.316,502066.641,,,
fixation,canvas.Screen,0_8_9_0,2022-07-15T22:06:48.342Z,,,,,,6,683.2430000000168,timeout,,,0.545,,,,,,,,,,,,,,,,,0.515,false,502550.799999997,502550.081,502050.043,502056.700000003,502066.641,502749.884,,,
stimulus,canvas.Screen,0_8_9_1,2022-07-15T22:06:50.036Z,,,,,,6,1494.11599999998,response,,0.545,0.545,,,https://raw.githubusercontent.com/carero2/loss-perception/main/png/0.545blue1yellowb%3D1w%3D100v%3D80.png,https://raw.githubusercontent.com/carero2/loss-perception/main/png/0.515blue1yellowb%3D1w%3D100v%3D80.png,,,,,,,,,true,j,keypress(j),0.515,0.515,false,504245.59999999404,504244,502550.081,502763.5,502749.884,504281.079,,,
choice,canvas.Screen,0_8_9_2,2022-07-15T22:06:51.056Z,,,,0.515,,6,999.0389999999898,timeout,,,0.545,,0.545,,,-3,11,,,,,,,,,,,0.515,false,505264.799999997,505264.063,504268.367,504273.799999997,504281.079,505280.118,111,,
ITI,canvas.Screen,0_8_9_3,2022-07-15T22:06:51.555Z,,,2885,,,6,499.50399999995716,timeout,,,0.545,,,,,,,,,,,,,,,,,0.515,false,505764.299999997,505763.566,505264.063,505265.59999999404,505280.118,505779.622,,,
trial,flow.Sequence,0_8_9,2022-07-15T22:06:51.555Z,,,,,,6,3696.9249999999884,completion,,,0.545,,,,,,,,,,,,,,,,,0.515,false,505764.700000003,505763.566,502050.043,502056.700000003,502066.641,505779.622,,,
fixation,canvas.Screen,0_8_10_0,2022-07-15T22:06:52.055Z,,,,,,4,716.5550000000512,timeout,,,0.49,,,,,,,,,,,,,,,,,0.47,false,506263.89999999106,506263.059,505763.566,505764.799999997,505779.622,506496.177,,,
stimulus,canvas.Screen,0_8_10_1,2022-07-15T22:06:53.490Z,,,,,,4,1201.3229999999749,response,,0.49,0.49,,,https://raw.githubusercontent.com/carero2/loss-perception/main/png/0.49blue1yellowb%3D1w%3D100v%3D21.png,https://raw.githubusercontent.com/carero2/loss-perception/main/png/0.47blue1yellowb%3D1w%3D100v%3D21.png,,,,,,,,,true,f,keypress(f),0.47,0.47,false,507698.799999997,507697.5,506263.059,506509.700000003,506496.177,507744.299,,,
choice,canvas.Screen,0_8_10_2,2022-07-15T22:06:54.519Z,,,,0.49,,4,999.0339999999851,timeout,,,0.49,,0.47,,,2,13,,,,,,,,,,,0.47,false,508728.09999999404,508727.267,507726.951,507729.39999999106,507744.299,508743.333,113,,
ITI,canvas.Screen,0_8_10_3,2022-07-15T22:06:55.018Z,,,2883,,,4,499.5030000000261,timeout,,,0.49,,,,,,,,,,,,,,,,,0.47,false,509227.59999999404,509226.792,508727.267,508728.89999999106,508743.333,509242.836,,,
trial,flow.Sequence,0_8_10,2022-07-15T22:06:55.019Z,,,,,,4,3447.170000000042,completion,,,0.49,,,,,,,,,,,,,,,,,0.47,false,509227.89999999106,509226.792,505763.566,505764.799999997,505779.622,509242.836,,,
fixation,canvas.Screen,0_8_11_0,2022-07-15T22:06:55.518Z,,,,,,2,765.8950000000186,timeout,,,0.505,,,,,,,,,,,,,,,,,0.495,true,509727,509726.193,509226.792,509228,509242.836,510008.731,,,
stimulus,canvas.Screen,0_8_11_1,2022-07-15T22:06:56.813Z,,,,,,2,1012.2689999999711,response,,0.495,0.505,,,https://raw.githubusercontent.com/carero2/loss-perception/main/png/0.495blue1yellowb%3D1w%3D100v%3D79.png,https://raw.githubusercontent.com/carero2/loss-perception/main/png/0.505blue1yellowb%3D1w%3D100v%3D79.png,,,,,,,,,true,j,keypress(j),0.505,0.495,true,511022.299999997,511021,509726.193,510022.5,510008.731,511057.632,,,
choice,canvas.Screen,0_8_11_2,2022-07-15T22:06:57.832Z,,,,0.505,,2,999.0920000000042,timeout,,,0.505,,0.495,,,-1,12,,,,,,,,,,,0.495,true,512041.39999999106,512040.648,511041.855,511051.299999997,511057.632,512056.724,112,,
ITI,canvas.Screen,0_8_11_3,2022-07-15T22:06:58.332Z,,,2021,,,2,499.4400000000023,timeout,,,0.505,,,,,,,,,,,,,,,,,0.495,true,512540.89999999106,512540.103,512040.648,512042.299999997,512056.724,512556.164,,,
trial,flow.Sequence,0_8_11,2022-07-15T22:06:58.332Z,,,,,,2,3297.2669999999925,completion,,,0.505,,,,,,,,,,,,,,,,,0.495,true,512541.09999999404,512540.103,509226.792,509228,509242.836,512556.164,,,
fixation,canvas.Screen,0_8_12_0,2022-07-15T22:06:58.838Z,,,,,,6,716.5540000000037,timeout,,,0.485,,,,,,,,,,,,,,,,,0.455,false,513047.200000003,513039.04,512540.103,512541.299999997,512556.164,513272.718,,,
stimulus,canvas.Screen,0_8_12_1,2022-07-15T22:06:59.796Z,,,,,,6,731.381999994046,response,,0.485,0.485,,,https://raw.githubusercontent.com/carero2/loss-perception/main/png/0.485blue1yellowb%3D1w%3D100v%3D83.png,https://raw.githubusercontent.com/carero2/loss-perception/main/png/0.455blue1yellowb%3D1w%3D100v%3D83.png,,,,,,,,,true,j,keypress(j),0.455,0.455,false,514005.59999999404,514004.09999999404,513039.04,513286,513272.718,514037.99,,,
choice,canvas.Screen,0_8_12_2,2022-07-15T22:07:00.813Z,,,,0.455,,6,999.0750000000116,timeout,,,0.485,,0.485,,,9,21,,,,,,,,,,,0.455,false,515022.299999997,515021.025,514022.302,514035.5,514037.99,515037.065,121,,
ITI,canvas.Screen,0_8_12_3,2022-07-15T22:07:01.312Z,,,2271,,,6,499.5339999999851,timeout,,,0.485,,,,,,,,,,,,,,,,,0.455,false,515521.39999999106,515520.52,515021.025,515022.700000003,515037.065,515536.599,,,
trial,flow.Sequence,0_8_12,2022-07-15T22:07:01.312Z,,,,,,6,2964.356000000029,completion,,,0.485,,,,,,,,,,,,,,,,,0.455,false,515521.59999999404,515520.52,512540.103,512541.200000003,512556.164,515536.599,,,
fixation,canvas.Screen,0_8_13_0,2022-07-15T22:07:01.812Z,,,,,,4,765.8709999999846,timeout,,,0.51,,,,,,,,,,,,,,,,,0.49,true,516020.799999997,516020.035,515520.52,515521.700000003,515536.599,516302.47,,,
stimulus,canvas.Screen,0_8_13_1,2022-07-15T22:07:03.873Z,,,,,,4,1778.1299999940675,response,,0.49,0.51,,,https://raw.githubusercontent.com/carero2/loss-perception/main/png/0.49blue1yellowb%3D1w%3D100v%3D100.png,https://raw.githubusercontent.com/carero2/loss-perception/main/png/0.51blue1yellowb%3D1w%3D100v%3D100.png,,,,,,,,,true,f,keypress(f),0.51,0.49,true,518081.89999999106,518080.59999999404,516020.035,516315.59999999404,516302.47,518133.96,,,
choice,canvas.Screen,0_8_13_2,2022-07-15T22:07:04.909Z,,,,0.49,,4,999.0419999999576,timeout,,,0.51,,0.51,,,2,23,,,,,,,,,,,0.49,true,519117.799999997,519116.935,518105.344,518112.200000003,518133.96,519133.002,123,,
ITI,canvas.Screen,0_8_13_3,2022-07-15T22:07:05.408Z,,,2861,,,4,499.7179999999935,timeout,,,0.51,,,,,,,,,,,,,,,,,0.49,true,519616.799999997,519615.855,519116.935,519118,519133.002,519632.72,,,
trial,flow.Sequence,0_8_13,2022-07-15T22:07:05.408Z,,,,,,4,4079.255999999994,completion,,,0.51,,,,,,,,,,,,,,,,,0.49,true,519617.39999999106,519615.855,515520.52,515521.700000003,515536.599,519632.72,,,
fixation,canvas.Screen,0_8_14_0,2022-07-15T22:07:05.912Z,,,,,,6,515.9010000000126,timeout,,,0.515,,,,,,,,,,,,,,,,,0.485,true,520121.59999999404,520115.41,519615.855,519617.59999999404,519632.72,520148.621,,,
stimulus,canvas.Screen,0_8_14_1,2022-07-15T22:07:07.007Z,,,,,,6,1066.3790000000154,response,,0.485,0.515,,,https://raw.githubusercontent.com/carero2/loss-perception/main/png/0.485blue1yellowb%3D1w%3D100v%3D36.png,https://raw.githubusercontent.com/carero2/loss-perception/main/png/0.515blue1yellowb%3D1w%3D100v%3D36.png,,,,,,,,,true,f,keypress(f),0.515,0.485,true,521216.700000003,521215,520115.41,520150.5,520148.621,521264.153,,,
choice,canvas.Screen,0_8_14_2,2022-07-15T22:07:08.038Z,,,,0.485,,6,999.5260000000126,timeout,,,0.515,,0.515,,,3,26,,,,,,,,,,,0.485,true,522247.59999999404,522246.872,521247.445,521255.700000003,521264.153,522263.679,126,,
ITI,canvas.Screen,0_8_14_3,2022-07-15T22:07:08.538Z,,,2665,,,6,499.070000000007,timeout,,,0.515,,,,,,,,,,,,,,,,,0.485,true,522747.39999999106,522746.685,522246.872,522247.799999997,522263.679,522762.749,,,
trial,flow.Sequence,0_8_14,2022-07-15T22:07:08.538Z,,,,,,6,3113.9650000000256,completion,,,0.515,,,,,,,,,,,,,,,,,0.485,true,522747.700000003,522746.685,519615.855,519617.59999999404,519632.72,522762.749,,,
fixation,canvas.Screen,0_8_15_0,2022-07-15T22:07:09.045Z,,,,,,2,749.2309999999707,timeout,,,0.495,,,,,,,,,,,,,,,,,0.485,false,523253.799999997,523245.567,522746.685,522747.89999999106,522762.749,523511.98,,,
stimulus,canvas.Screen,0_8_15_1,2022-07-15T22:07:10.018Z,,,,,,2,714.2200000029989,response,,0.495,0.495,,,https://raw.githubusercontent.com/carero2/loss-perception/main/png/0.495blue1yellowb%3D1w%3D100v%3D39.png,https://raw.githubusercontent.com/carero2/loss-perception/main/png/0.485blue1yellowb%3D1w%3D100v%3D39.png,,,,,,,,,true,j,keypress(j),0.485,0.485,false,524227.59999999404,524226.200000003,523245.567,523525.39999999106,523511.98,524261.523,,,
choice,canvas.Screen,0_8_15_2,2022-07-15T22:07:11.045Z,,,,0.485,,2,998.6510000000126,timeout,,,0.495,,0.495,,,3,29,,,,,,,,,,,0.485,false,525249.599999994,525243.643,524245.225,524257.59999999404,524261.523,525260.174,129,,
ITI,canvas.Screen,0_8_15_3,2022-07-15T22:07:11.540Z,,,2831,,,2,499.5709999999963,timeout,,,0.495,,,,,,,,,,,,,,,,,0.485,false,525744.3999999911,525743.681,525243.643,525249.8999999911,525260.174,525759.745,,,
trial,flow.Sequence,0_8_15,2022-07-15T22:07:11.541Z,,,,,,2,2980.9319999999716,completion,,,0.495,,,,,,,,,,,,,,,,,0.485,false,525745.200000003,525743.681,522746.685,522747.799999997,522762.749,525759.745,,,
fixation,canvas.Screen,0_8_16_0,2022-07-15T22:07:12.040Z,,,,,,2,1015.6639999999898,timeout,,,0.515,,,,,,,,,,,,,,,,,0.505,true,526244,526243.192,525743.681,525745.599999994,525759.745,526775.409,,,
stimulus,canvas.Screen,0_8_16_1,2022-07-15T22:07:13.950Z,,,,,,2,1376.591000000015,response,,0.505,0.515,,,https://raw.githubusercontent.com/carero2/loss-perception/main/png/0.505blue1yellowb%3D1w%3D100v%3D60.png,https://raw.githubusercontent.com/carero2/loss-perception/main/png/0.515blue1yellowb%3D1w%3D100v%3D60.png,,,,,,,,,true,j,keypress(j),0.515,0.505,true,528153.799999997,528152,526243.192,526789.599999994,526775.409,528207.278,,,
choice,canvas.Screen,0_8_16_2,2022-07-15T22:07:14.987Z,,,,0.515,,2,999.1009999999078,timeout,,,0.515,,0.505,,,-3,26,,,,,,,,,,,0.505,true,529191.099999994,529190.263,528175.738,528187.3999999911,528207.278,529206.379,126,,
ITI,canvas.Screen,0_8_16_3,2022-07-15T22:07:15.486Z,,,2072,,,2,499.44000000006054,timeout,,,0.515,,,,,,,,,,,,,,,,,0.505,true,529690.5,529689.767,529190.263,529191.299999997,529206.379,529705.819,,,
trial,flow.Sequence,0_8_16,2022-07-15T22:07:15.487Z,,,,,,2,3930.021999999997,completion,,,0.515,,,,,,,,,,,,,,,,,0.505,true,529690.8999999911,529689.767,525743.681,525745.5,525759.745,529705.819,,,
fixation,canvas.Screen,0_8_17_0,2022-07-15T22:07:15.996Z,,,,,,4,716.5690000000177,timeout,,,0.53,,,,,,,,,,,,,,,,,0.51,false,530200.3999999911,530188.824,529689.767,529691.200000003,529705.819,530422.388,,,
stimulus,canvas.Screen,0_8_17_1,2022-07-15T22:07:16.968Z,,,,,,4,747.3120000029448,response,,0.53,0.53,,,https://raw.githubusercontent.com/carero2/loss-perception/main/png/0.53blue1yellowb%3D1w%3D100v%3D77.png,https://raw.githubusercontent.com/carero2/loss-perception/main/png/0.51blue1yellowb%3D1w%3D100v%3D77.png,,,,,,,,,true,j,keypress(j),0.51,0.51,false,531171.799999997,531169.700000003,530188.824,530435.799999997,530422.388,531220.959,,,
choice,canvas.Screen,0_8_17_2,2022-07-15T22:07:18.000Z,,,,0.51,,4,999.0239999999758,timeout,,,0.53,,0.53,,,-2,24,,,,,,,,,,,0.51,false,532204.200000003,532203.379,531189.374,531201,531220.959,532219.983,124,,
ITI,canvas.Screen,0_8_17_3,2022-07-15T22:07:18.500Z,,,2909,,,4,499.50800000003073,timeout,,,0.53,,,,,,,,,,,,,,,,,0.51,false,532704.200000003,532703.441,532203.379,532204.3999999911,532219.983,532719.491,,,
trial,flow.Sequence,0_8_17,2022-07-15T22:07:18.500Z,,,,,,4,2997.621999999974,completion,,,0.53,,,,,,,,,,,,,,,,,0.51,false,532704.599999994,532703.441,529689.767,529691.099999994,529705.819,532719.491,,,
fixation,canvas.Screen,0_8_18_0,2022-07-15T22:07:19.006Z,,,,,,4,682.6339999999618,timeout,,,0.53,,,,,,,,,,,,,,,,,0.51,true,533210.599999994,533202.329,532703.441,532704.8999999911,532719.491,533402.125,,,
stimulus,canvas.Screen,0_8_18_1,2022-07-15T22:07:20.581Z,,,,,,4,1381.1749999970198,response,,0.51,0.53,,,https://raw.githubusercontent.com/carero2/loss-perception/main/png/0.51blue1yellowb%3D1w%3D100v%3D81.png,https://raw.githubusercontent.com/carero2/loss-perception/main/png/0.53blue1yellowb%3D1w%3D100v%3D81.png,,,,,,,,,true,f,keypress(f),0.53,0.51,true,534785.099999994,534783.299999997,533202.329,533415.299999997,533402.125,534834.029,,,
choice,canvas.Screen,0_8_18_2,2022-07-15T22:07:21.618Z,,,,0.51,,4,999.0320000000065,timeout,,,0.53,,0.53,,,-2,22,,,,,,,,,,,0.51,true,535822.3999999911,535816.464,534799.798,534813.5,534834.029,535833.061,122,,
ITI,canvas.Screen,0_8_18_3,2022-07-15T22:07:22.113Z,,,2295,,,4,499.7070000000531,timeout,,,0.53,,,,,,,,,,,,,,,,,0.51,true,536317.299999997,536316.508,535816.464,535822.700000003,535833.061,536332.768,,,
trial,flow.Sequence,0_8_18,2022-07-15T22:07:22.114Z,,,,,,4,3597.0169999999925,completion,,,0.53,,,,,,,,,,,,,,,,,0.51,true,536317.700000003,536316.508,532703.441,532704.700000003,532719.491,536332.768,,,
fixation,canvas.Screen,0_8_19_0,2022-07-15T22:07:22.613Z,,,,,,2,815.6389999999665,timeout,,,0.495,,,,,,,,,,,,,,,,,0.485,true,536816.700000003,536815.931,536316.508,536317.8999999911,536332.768,537148.407,,,
stimulus,canvas.Screen,0_8_19_1,2022-07-15T22:07:24.729Z,,,,,,2,1782.4929999910528,response,,0.485,0.495,,,https://raw.githubusercontent.com/carero2/loss-perception/main/png/0.485blue1yellowb%3D1w%3D100v%3D74.png,https://raw.githubusercontent.com/carero2/loss-perception/main/png/0.495blue1yellowb%3D1w%3D100v%3D74.png,,,,,,,,,true,f,keypress(f),0.495,0.485,true,538932.700000003,538930.8999999911,536815.931,537162.5,537148.407,538979.911,,,
choice,canvas.Screen,0_8_19_2,2022-07-15T22:07:25.760Z,,,,0.485,,2,999.0430000000633,timeout,,,0.495,,0.495,,,3,25,,,,,,,,,,,0.485,true,539963.700000003,539962.879,538947.238,538961.5,538979.911,539978.954,125,,
ITI,canvas.Screen,0_8_19_3,2022-07-15T22:07:26.259Z,,,2077,,,2,499.4199999999255,timeout,,,0.495,,,,,,,,,,,,,,,,,0.485,true,540463.099999994,540462.375,539962.879,539964,539978.954,540478.374,,,
trial,flow.Sequence,0_8_19,2022-07-15T22:07:26.259Z,,,,,,2,4129.60699999996,completion,,,0.495,,,,,,,,,,,,,,,,,0.485,true,540463.5,540462.375,536316.508,536317.799999997,536332.768,540478.374,,,
fixation,canvas.Screen,0_8_20_0,2022-07-15T22:07:26.758Z,,,,,,6,749.9409999999916,timeout,,,0.485,,,,,,,,,,,,,,,,,0.455,false,540962.5,540961.81,540462.375,540463.700000003,540478.374,541228.315,,,
stimulus,canvas.Screen,0_8_20_1,2022-07-15T22:07:27.604Z,,,,,,6,578.0849999911152,response,,0.485,0.485,,,https://raw.githubusercontent.com/carero2/loss-perception/main/png/0.485blue1yellowb%3D1w%3D100v%3D87.png,https://raw.githubusercontent.com/carero2/loss-perception/main/png/0.455blue1yellowb%3D1w%3D100v%3D87.png,,,,,,,,,true,j,keypress(j),0.455,0.455,false,541808.200000003,541806.3999999911,540961.81,541241.799999997,541228.315,541843.675,,,
choice,canvas.Screen,0_8_20_2,2022-07-15T22:07:28.624Z,,,,0.455,,6,999.0749999999534,timeout,,,0.485,,0.485,,,9,34,,,,,,,,,,,0.455,false,542828,542826.715,541828.308,541837,541843.675,542842.75,134,,
ITI,canvas.Screen,0_8_20_3,2022-07-15T22:07:29.123Z,,,2053,,,6,499.80000000004657,timeout,,,0.485,,,,,,,,,,,,,,,,,0.455,false,543327,543326.168,542826.715,542828.299999997,542842.75,543342.55,,,
trial,flow.Sequence,0_8_20,2022-07-15T22:07:29.123Z,,,,,,6,2847.7939999999944,completion,,,0.485,,,,,,,,,,,,,,,,,0.455,false,543327.299999997,543326.168,540462.375,540463.599999994,540478.374,543342.55,,,
fixation,canvas.Screen,0_8_21_0,2022-07-15T22:07:29.629Z,,,,,,4,766.2069999999367,timeout,,,0.51,,,,,,,,,,,,,,,,,0.49,true,543833.200000003,543825.101,543326.168,543327.3999999911,543342.55,544108.757,,,
stimulus,canvas.Screen,0_8_21_1,2022-07-15T22:07:31.083Z,,,,,,4,1176.642999991076,response,,0.49,0.51,,,https://raw.githubusercontent.com/carero2/loss-perception/main/png/0.49blue1yellowb%3D1w%3D100v%3D88.png,https://raw.githubusercontent.com/carero2/loss-perception/main/png/0.51blue1yellowb%3D1w%3D100v%3D88.png,,,,,,,,,true,j,keypress(j),0.51,0.49,true,545286.8999999911,545285.3999999911,543825.101,544122.3999999911,544108.757,545340.238,,,
choice,canvas.Screen,0_8_21_2,2022-07-15T22:07:32.120Z,,,,0.51,,4,999.0659999999916,timeout,,,0.51,,0.49,,,-2,32,,,,,,,,,,,0.49,true,546324.299999997,546323.283,545309.733,545315.299999997,545340.238,546339.304,132,,
ITI,canvas.Screen,0_8_21_3,2022-07-15T22:07:32.619Z,,,2466,,,4,499.41500000003725,timeout,,,0.51,,,,,,,,,,,,,,,,,0.49,true,546823.3999999911,546822.615,546323.283,546324.700000003,546339.304,546838.719,,,
trial,flow.Sequence,0_8_21,2022-07-15T22:07:32.620Z,,,,,,4,3480.064999999944,completion,,,0.51,,,,,,,,,,,,,,,,,0.49,true,546823.8999999911,546822.615,543326.168,543327.3999999911,543342.55,546838.719,,,
fixation,canvas.Screen,0_8_22_0,2022-07-15T22:07:33.119Z,,,,,,6,716.6309999999357,timeout,,,0.545,,,,,,,,,,,,,,,,,0.515,false,547322.8999999911,547322.254,546822.615,546824,546838.719,547555.35,,,
stimulus,canvas.Screen,0_8_22_1,2022-07-15T22:07:33.903Z,,,,,,6,550.1500000000233,response,,0.545,0.545,,,https://raw.githubusercontent.com/carero2/loss-perception/main/png/0.545blue1yellowb%3D1w%3D100v%3D17.png,https://raw.githubusercontent.com/carero2/loss-perception/main/png/0.515blue1yellowb%3D1w%3D100v%3D17.png,,,,,,,,,true,j,keypress(j),0.515,0.515,false,548107.5,548105.5,547322.254,547568.799999997,547555.35,548154.141,,,
choice,canvas.Screen,0_8_22_2,2022-07-15T22:07:34.934Z,,,,0.515,,6,999.0090000000782,timeout,,,0.545,,0.545,,,-3,29,,,,,,,,,,,0.515,false,549138,549137.087,548137.595,548139.299999997,548154.141,549153.15,129,,
ITI,canvas.Screen,0_8_22_3,2022-07-15T22:07:35.433Z,,,2758,,,6,499.8549999999814,timeout,,,0.545,,,,,,,,,,,,,,,,,0.515,false,549637.5,549636.605,549137.087,549138.200000003,549153.15,549653.005,,,
trial,flow.Sequence,0_8_22,2022-07-15T22:07:35.434Z,,,,,,6,2797.8859999999404,completion,,,0.545,,,,,,,,,,,,,,,,,0.515,false,549637.799999997,549636.605,546822.615,546824,546838.719,549653.005,,,
fixation,canvas.Screen,0_8_23_0,2022-07-15T22:07:35.934Z,,,,,,2,732.8279999999795,timeout,,,0.515,,,,,,,,,,,,,,,,,0.505,false,550137.700000003,550136.306,549636.605,549638.099999994,549653.005,550385.833,,,
stimulus,canvas.Screen,0_8_23_1,2022-07-15T22:07:36.833Z,,,,,,2,649.7669999940554,response,,0.515,0.515,,,https://raw.githubusercontent.com/carero2/loss-perception/main/png/0.515blue1yellowb%3D1w%3D100v%3D77.png,https://raw.githubusercontent.com/carero2/loss-perception/main/png/0.505blue1yellowb%3D1w%3D100v%3D77.png,,,,,,,,,true,j,keypress(j),0.505,0.505,false,551036.799999997,551035.599999994,550136.306,550399.299999997,550385.833,551084.56,,,
choice,canvas.Screen,0_8_23_2,2022-07-15T22:07:37.865Z,,,,0.505,,2,999.0449999999255,timeout,,,0.515,,0.515,,,-1,28,,,,,,,,,,,0.505,false,552068.799999997,552067.537,551068.509,551068.700000003,551084.56,552083.605,128,,
ITI,canvas.Screen,0_8_23_3,2022-07-15T22:07:38.372Z,,,2620,,,2,499.5230000000447,timeout,,,0.515,,,,,,,,,,,,,,,,,0.505,false,552575.700000003,552566.712,552067.537,552069.299999997,552083.605,552583.128,,,
trial,flow.Sequence,0_8_23,2022-07-15T22:07:38.372Z,,,,,,2,2913.707000000053,completion,,,0.515,,,,,,,,,,,,,,,,,0.505,false,552576,552566.712,549636.605,549638,549653.005,552583.128,,,
fixation,canvas.Screen,0_8_24_0,2022-07-15T22:07:38.864Z,,,,,,4,765.9109999999637,timeout,,,0.49,,,,,,,,,,,,,,,,,0.47,false,553067.799999997,553066.602,552566.712,552576.200000003,552583.128,553349.039,,,
stimulus,canvas.Screen,0_8_24_1,2022-07-15T22:07:39.965Z,,,,,,4,818.8609999910695,response,,0.49,0.49,,,https://raw.githubusercontent.com/carero2/loss-perception/main/png/0.49blue1yellowb%3D1w%3D100v%3D48.png,https://raw.githubusercontent.com/carero2/loss-perception/main/png/0.47blue1yellowb%3D1w%3D100v%3D48.png,,,,,,,,,true,j,keypress(j),0.47,0.47,false,554169.599999994,554167.8999999911,553066.602,553362.3999999911,553349.039,554214.729,,,
choice,canvas.Screen,0_8_24_2,2022-07-15T22:07:40.995Z,,,,0.47,,4,999.0549999999348,timeout,,,0.49,,0.49,,,6,34,,,,,,,,,,,0.47,false,555199,555197.73,554199.47,554200.5,554214.729,555213.784,134,,
ITI,canvas.Screen,0_8_24_3,2022-07-15T22:07:41.494Z,,,2527,,,4,499.4470000000438,timeout,,,0.49,,,,,,,,,,,,,,,,,0.47,false,555698.099999994,555697.232,555197.73,555199.3999999911,555213.784,555713.231,,,
trial,flow.Sequence,0_8_24,2022-07-15T22:07:41.494Z,,,,,,4,3114.103999999934,completion,,,0.49,,,,,,,,,,,,,,,,,0.47,false,555698.299999997,555697.232,552566.712,552576.200000003,552583.128,555713.231,,,
fixation,canvas.Screen,0_8_25_0,2022-07-15T22:07:41.993Z,,,,,,6,516.2239999999292,timeout,,,0.515,,,,,,,,,,,,,,,,,0.485,false,556197.5,556196.754,555697.232,555698.599999994,555713.231,556229.455,,,
stimulus,canvas.Screen,0_8_25_1,2022-07-15T22:07:42.604Z,,,,,,6,577.3449999970617,response,,0.515,0.515,,,https://raw.githubusercontent.com/carero2/loss-perception/main/png/0.515blue1yellowb%3D1w%3D100v%3D24.png,https://raw.githubusercontent.com/carero2/loss-perception/main/png/0.485blue1yellowb%3D1w%3D100v%3D24.png,,,,,,,,,true,j,keypress(j),0.485,0.485,false,556808.299999997,556806.799999997,556196.754,556236.099999994,556229.455,556862.147,,,
choice,canvas.Screen,0_8_25_2,2022-07-15T22:07:43.642Z,,,,0.485,,6,999.375,timeout,,,0.515,,0.515,,,3,37,,,,,,,,,,,0.485,false,557845.8999999911,557845.053,556830.852,556835.8999999911,556862.147,557861.522,137,,
ITI,canvas.Screen,0_8_25_3,2022-07-15T22:07:44.147Z,,,2946,,,6,499.1380000000354,timeout,,,0.515,,,,,,,,,,,,,,,,,0.485,false,558351.099999994,558344.06,557845.053,557846.099999994,557861.522,558360.66,,,
trial,flow.Sequence,0_8_25,2022-07-15T22:07:44.147Z,,,,,,6,2630.829000000027,completion,,,0.515,,,,,,,,,,,,,,,,,0.485,false,558351.3999999911,558344.06,555697.232,555698.5,555713.231,558360.66,,,
fixation,canvas.Screen,0_8_26_0,2022-07-15T22:07:44.641Z,,,,,,2,499.52899999998044,timeout,,,0.505,,,,,,,,,,,,,,,,,0.495,false,558844.799999997,558843.992,558344.06,558351.5,558360.66,558860.189,,,
stimulus,canvas.Screen,0_8_26_1,2022-07-15T22:07:45.160Z,,,,,,2,501.9109999940265,response,,0.505,0.505,,,https://raw.githubusercontent.com/carero2/loss-perception/main/png/0.505blue1yellowb%3D1w%3D100v%3D32.png,https://raw.githubusercontent.com/carero2/loss-perception/main/png/0.495blue1yellowb%3D1w%3D100v%3D32.png,,,,,,,,,true,j,keypress(j),0.495,0.495,false,559364.099999994,559362.099999994,558843.992,558873.299999997,558860.189,559409.855,,,
choice,canvas.Screen,0_8_26_2,2022-07-15T22:07:46.189Z,,,,0.495,,2,998.7280000000028,timeout,,,0.505,,0.505,,,1,38,,,,,,,,,,,0.495,false,560393.3999999911,560392.561,559393.079,559403.8999999911,559409.855,560408.583,138,,
ITI,canvas.Screen,0_8_26_3,2022-07-15T22:07:46.689Z,,,2650,,,2,499.5219999999972,timeout,,,0.505,,,,,,,,,,,,,,,,,0.495,false,560892.799999997,560892.065,560392.561,560393.599999994,560408.583,560908.105,,,
trial,flow.Sequence,0_8_26,2022-07-15T22:07:46.689Z,,,,,,2,2531.4049999999115,completion,,,0.505,,,,,,,,,,,,,,,,,0.495,false,560893.200000003,560892.065,558344.06,558351.3999999911,558360.66,560908.105,,,
fixation,canvas.Screen,0_8_27_0,2022-07-15T22:07:47.188Z,,,,,,4,682.673000000068,timeout,,,0.53,,,,,,,,,,,,,,,,,0.51,false,561392.3999999911,561391.651,560892.065,560893.299999997,560908.105,561590.778,,,
stimulus,canvas.Screen,0_8_27_1,2022-07-15T22:07:48.113Z,,,,,,4,724.0219999969704,response,,0.53,0.53,,,https://raw.githubusercontent.com/carero2/loss-perception/main/png/0.53blue1yellowb%3D1w%3D100v%3D15.png,https://raw.githubusercontent.com/carero2/loss-perception/main/png/0.51blue1yellowb%3D1w%3D100v%3D15.png,,,,,,,,,true,j,keypress(j),0.51,0.51,false,562316.799999997,562314.799999997,561391.651,561605.799999997,561590.778,562373.286,,,
choice,canvas.Screen,0_8_27_2,2022-07-15T22:07:49.158Z,,,,0.51,,4,999.0520000000251,timeout,,,0.53,,0.53,,,-2,36,,,,,,,,,,,0.51,false,563361.700000003,563355.743,562340.248,562350.8999999911,562373.286,563372.338,136,,
ITI,canvas.Screen,0_8_27_3,2022-07-15T22:07:49.653Z,,,2734,,,4,499.4459999999963,timeout,,,0.53,,,,,,,,,,,,,,,,,0.51,false,563856.700000003,563855.806,563355.743,563362.099999994,563372.338,563871.784,,,
trial,flow.Sequence,0_8_27,2022-07-15T22:07:49.653Z,,,,,,4,2947.701000000001,completion,,,0.53,,,,,,,,,,,,,,,,,0.51,false,563857.099999994,563855.806,560892.065,560893.299999997,560908.105,563871.784,,,
fixation,canvas.Screen,0_8_28_0,2022-07-15T22:07:50.152Z,,,,,,6,716.2660000000615,timeout,,,0.515,,,,,,,,,,,,,,,,,0.485,false,564356.099999994,564355.322,563855.806,563857.299999997,563871.784,564588.05,,,
stimulus,canvas.Screen,0_8_28_1,2022-07-15T22:07:51.077Z,,,,,,6,691.7499999969732,response,,0.515,0.515,,,https://raw.githubusercontent.com/carero2/loss-perception/main/png/0.515blue1yellowb%3D1w%3D100v%3D18.png,https://raw.githubusercontent.com/carero2/loss-perception/main/png/0.485blue1yellowb%3D1w%3D100v%3D18.png,,,,,,,,,true,j,keypress(j),0.485,0.485,false,565281.200000003,565279.799999997,564355.322,564601.200000003,564588.05,565320.342,,,
choice,canvas.Screen,0_8_28_2,2022-07-15T22:07:52.107Z,,,,0.485,,6,999.0700000000652,timeout,,,0.515,,0.515,,,3,39,,,,,,,,,,,0.485,false,566311.299999997,566302.757,565305.021,565313,565320.342,566319.412,139,,
ITI,canvas.Screen,0_8_28_3,2022-07-15T22:07:52.604Z,,,2364,,,6,499.4399999999441,timeout,,,0.515,,,,,,,,,,,,,,,,,0.485,false,566808.3999999911,566802.315,566302.757,566312.099999994,566319.412,566818.852,,,
trial,flow.Sequence,0_8_28,2022-07-15T22:07:52.604Z,,,,,,6,2930.530999999959,completion,,,0.515,,,,,,,,,,,,,,,,,0.485,false,566808.599999994,566802.315,563855.806,563857.200000003,563871.784,566818.852,,,
fixation,canvas.Screen,0_8_29_0,2022-07-15T22:07:53.104Z,,,,,,6,716.0920000000624,timeout,,,0.545,,,,,,,,,,,,,,,,,0.515,true,567307.700000003,567301.831,566802.315,566808.799999997,566818.852,567534.944,,,
stimulus,canvas.Screen,0_8_29_1,2022-07-15T22:07:54.451Z,,,,,,6,1118.9559999910416,response,,0.515,0.545,,,https://raw.githubusercontent.com/carero2/loss-perception/main/png/0.515blue1yellowb%3D1w%3D100v%3D32.png,https://raw.githubusercontent.com/carero2/loss-perception/main/png/0.545blue1yellowb%3D1w%3D100v%3D32.png,,,,,,,,,true,f,keypress(f),0.545,0.515,true,568655,568653.8999999911,567301.831,567548.200000003,567534.944,568700.973,,,
choice,canvas.Screen,0_8_29_2,2022-07-15T22:07:55.479Z,,,,0.515,,6,998.4070000000065,timeout,,,0.545,,0.545,,,-3,36,,,,,,,,,,,0.515,true,569683.599999994,569682.782,568670.319,568685.8999999911,568700.973,569699.38,136,,
ITI,canvas.Screen,0_8_29_3,2022-07-15T22:07:55.979Z,,,2958,,,6,499.54099999996834,timeout,,,0.545,,,,,,,,,,,,,,,,,0.515,true,570183.700000003,570182.84,569682.782,569684.3999999911,569699.38,570198.921,,,
trial,flow.Sequence,0_8_29,2022-07-15T22:07:55.980Z,,,,,,6,3363.988000000012,completion,,,0.545,,,,,,,,,,,,,,,,,0.515,true,570183.8999999911,570182.84,566802.315,566808.799999997,566818.852,570198.921,,,
fixation,canvas.Screen,0_8_30_0,2022-07-15T22:07:56.479Z,,,,,,2,699.2950000000419,timeout,,,0.495,,,,,,,,,,,,,,,,,0.485,false,570683,570682.213,570182.84,570184.099999994,570198.921,570898.216,,,
stimulus,canvas.Screen,0_8_30_1,2022-07-15T22:07:57.876Z,,,,,,2,1180.5839999970049,response,,0.495,0.495,,,https://raw.githubusercontent.com/carero2/loss-perception/main/png/0.495blue1yellowb%3D1w%3D100v%3D50.png,https://raw.githubusercontent.com/carero2/loss-perception/main/png/0.485blue1yellowb%3D1w%3D100v%3D50.png,,,,,,,,,true,j,keypress(j),0.485,0.485,false,572080.200000003,572078.799999997,570682.213,570911.599999994,570898.216,572130.279,,,
choice,canvas.Screen,0_8_30_2,2022-07-15T22:07:58.917Z,,,,0.485,,2,998.9799999999814,timeout,,,0.495,,0.495,,,3,39,,,,,,,,,,,0.485,false,573121.3999999911,573112.708,572113.38,572116.3999999911,572130.279,573129.259,139,,
ITI,canvas.Screen,0_8_30_3,2022-07-15T22:07:59.415Z,,,2145,,,2,499.53000000002794,timeout,,,0.495,,,,,,,,,,,,,,,,,0.485,false,573619.599999994,573612.199,573112.708,573121.799999997,573129.259,573628.789,,,
trial,flow.Sequence,0_8_30,2022-07-15T22:07:59.416Z,,,,,,2,3413.2780000000494,completion,,,0.495,,,,,,,,,,,,,,,,,0.485,false,573619.8999999911,573612.199,570182.84,570184.099999994,570198.921,573628.789,,,
fixation,canvas.Screen,0_8_31_0,2022-07-15T22:07:59.914Z,,,,,,6,799.7330000000075,timeout,,,0.485,,,,,,,,,,,,,,,,,0.455,false,574118.200000003,574111.694,573612.199,573620.200000003,573628.789,574428.522,,,
stimulus,canvas.Screen,0_8_31_1,2022-07-15T22:08:01.350Z,,,,,,6,1124.877999991062,response,,0.485,0.485,,,https://raw.githubusercontent.com/carero2/loss-perception/main/png/0.485blue1yellowb%3D1w%3D100v%3D38.png,https://raw.githubusercontent.com/carero2/loss-perception/main/png/0.455blue1yellowb%3D1w%3D100v%3D38.png,,,,,,,,,true,j,keypress(j),0.455,0.455,false,575554.5,575553.3999999911,574111.694,574441.8999999911,574428.522,575593.519,,,
choice,canvas.Screen,0_8_31_2,2022-07-15T22:08:02.373Z,,,,0.455,,6,999.408000000054,timeout,,,0.485,,0.485,,,9,48,,,,,,,,,,,0.455,false,576577.099999994,576576.264,575577.703,575580.799999997,575593.519,576592.927,148,,
ITI,canvas.Screen,0_8_31_3,2022-07-15T22:08:02.873Z,,,2289,,,6,499.50800000003073,timeout,,,0.485,,,,,,,,,,,,,,,,,0.455,false,577076.799999997,577075.946,576576.264,576577.299999997,576592.927,577092.435,,,
trial,flow.Sequence,0_8_31,2022-07-15T22:08:02.873Z,,,,,,6,3447.1570000000065,completion,,,0.485,,,,,,,,,,,,,,,,,0.455,false,577077.200000003,577075.946,573612.199,573620.099999994,573628.789,577092.435,,,
fixation,canvas.Screen,0_8_32_0,2022-07-15T22:08:03.372Z,,,,,,4,715.6169999999693,timeout,,,0.49,,,,,,,,,,,,,,,,,0.47,false,577576.200000003,577575.497,577075.946,577077.599999994,577092.435,577808.052,,,
stimulus,canvas.Screen,0_8_32_1,2022-07-15T22:08:04.639Z,,,,,,4,1033.9479999999749,response,,0.49,0.49,,,https://raw.githubusercontent.com/carero2/loss-perception/main/png/0.49blue1yellowb%3D1w%3D100v%3D20.png,https://raw.githubusercontent.com/carero2/loss-perception/main/png/0.47blue1yellowb%3D1w%3D100v%3D20.png,,,,,,,,,true,j,keypress(j),0.47,0.47,false,578843.200000003,578842,577575.497,577821.3999999911,577808.052,578896.754,,,
choice,canvas.Screen,0_8_32_2,2022-07-15T22:08:05.678Z,,,,0.47,,4,992.4780000000028,timeout,,,0.49,,0.49,,,6,54,,,,,,,,,,,0.47,false,579882.200000003,579872.653,578858.646,578872.3999999911,578896.754,579889.232,154,,
ITI,canvas.Screen,0_8_32_3,2022-07-15T22:08:06.176Z,,,2532,,,4,499.51900000008754,timeout,,,0.49,,,,,,,,,,,,,,,,,0.47,false,580379.700000003,580372.145,579872.653,579882.3999999911,579889.232,580388.751,,,
trial,flow.Sequence,0_8_32,2022-07-15T22:08:06.176Z,,,,,,4,3279.7099999999627,completion,,,0.49,,,,,,,,,,,,,,,,,0.47,false,580380.299999997,580372.145,577075.946,577077.5,577092.435,580388.751,,,
fixation,canvas.Screen,0_8_33_0,2022-07-15T22:08:06.668Z,,,,,,2,716.4709999999031,timeout,,,0.515,,,,,,,,,,,,,,,,,0.505,true,580872.599999994,580871.625,580372.145,580397.299999997,580388.751,581105.222,,,
stimulus,canvas.Screen,0_8_33_1,2022-07-15T22:08:08.045Z,,,,,,2,1142.9780000030296,response,,0.505,0.515,,,https://raw.githubusercontent.com/carero2/loss-perception/main/png/0.505blue1yellowb%3D1w%3D100v%3D91.png,https://raw.githubusercontent.com/carero2/loss-perception/main/png/0.515blue1yellowb%3D1w%3D100v%3D91.png,,,,,,,,,true,j,keypress(j),0.515,0.505,true,582249.299999997,582248.200000003,580871.625,581119.099999994,581105.222,582286.782,,,
choice,canvas.Screen,0_8_33_2,2022-07-15T22:08:09.067Z,,,,0.515,,2,1015.7219999999506,timeout,,,0.515,,0.505,,,-3,51,,,,,,,,,,,0.505,true,583271.099999994,583269.813,582272.989,582278.3999999911,582286.782,583302.504,151,,
ITI,canvas.Screen,0_8_33_3,2022-07-15T22:08:09.583Z,,,2008,,,2,499.53000000002794,timeout,,,0.515,,,,,,,,,,,,,,,,,0.505,true,583786.799999997,583785.974,583269.813,583303.599999994,583302.504,583802.034,,,
trial,flow.Sequence,0_8_33,2022-07-15T22:08:09.583Z,,,,,,2,3397.222999999998,completion,,,0.515,,,,,,,,,,,,,,,,,0.505,true,583787.099999994,583785.974,580372.145,580380.5,580388.751,583802.034,,,
fixation,canvas.Screen,0_8_34_0,2022-07-15T22:08:10.082Z,,,,,,2,716.3240000000224,timeout,,,0.505,,,,,,,,,,,,,,,,,0.495,true,584286,584285.274,583785.974,583787.200000003,583802.034,584518.358,,,
stimulus,canvas.Screen,0_8_34_1,2022-07-15T22:08:11.443Z,,,,,,2,1129.4419999970123,response,,0.495,0.505,,,https://raw.githubusercontent.com/carero2/loss-perception/main/png/0.495blue1yellowb%3D1w%3D100v%3D78.png,https://raw.githubusercontent.com/carero2/loss-perception/main/png/0.505blue1yellowb%3D1w%3D100v%3D78.png,,,,,,,,,true,f,keypress(f),0.505,0.495,true,585649.299999997,585647.799999997,584285.274,584532.5,584518.358,585683.426,,,
choice,canvas.Screen,0_8_34_2,2022-07-15T22:08:12.460Z,,,,0.495,,2,999.0629999999655,timeout,,,0.505,,0.505,,,1,52,,,,,,,,,,,0.495,true,586666.599999994,586665.841,585666.518,585677.5,585683.426,586682.489,152,,
ITI,canvas.Screen,0_8_34_3,2022-07-15T22:08:12.960Z,,,2109,,,2,499.5100000000093,timeout,,,0.505,,,,,,,,,,,,,,,,,0.495,true,587166.700000003,587165.948,586665.841,586667.3999999911,586682.489,587181.999,,,
trial,flow.Sequence,0_8_34,2022-07-15T22:08:12.961Z,,,,,,2,3363.9139999999898,completion,,,0.505,,,,,,,,,,,,,,,,,0.495,true,587167,587165.948,583785.974,583787.099999994,583802.034,587181.999,,,
fixation,canvas.Screen,0_8_35_0,2022-07-15T22:08:13.460Z,,,,,,4,549.5100000000093,timeout,,,0.51,,,,,,,,,,,,,,,,,0.49,true,587666.200000003,587665.452,587165.948,587167.200000003,587181.999,587731.509,,,
stimulus,canvas.Screen,0_8_35_1,2022-07-15T22:08:14.966Z,,,,,,4,1438.3909999910975,response,,0.49,0.51,,,https://raw.githubusercontent.com/carero2/loss-perception/main/png/0.49blue1yellowb%3D1w%3D100v%3D41.png,https://raw.githubusercontent.com/carero2/loss-perception/main/png/0.51blue1yellowb%3D1w%3D100v%3D41.png,,,,,,,,,true,f,keypress(f),0.51,0.49,true,589172.700000003,589169.8999999911,587665.452,587757.3999999911,587731.509,589246.541,,,
choice,canvas.Screen,0_8_35_2,2022-07-15T22:08:16.024Z,,,,0.49,,4,999.1680000000633,timeout,,,0.51,,0.51,,,2,54,,,,,,,,,,,0.49,true,590230.3999999911,590229.578,589230.247,589241,589246.541,590245.709,154,,
ITI,canvas.Screen,0_8_35_3,2022-07-15T22:08:16.523Z,,,2330,,,4,499.4199999999255,timeout,,,0.51,,,,,,,,,,,,,,,,,0.49,true,590729.599999994,590728.458,590229.578,590230.599999994,590245.709,590745.129,,,
trial,flow.Sequence,0_8_35,2022-07-15T22:08:16.523Z,,,,,,4,3546.4590000000317,completion,,,0.51,,,,,,,,,,,,,,,,,0.49,true,590730,590728.458,587165.948,587167.099999994,587181.999,590745.129,,,
fixation,canvas.Screen,0_8_36_0,2022-07-15T22:08:17.022Z,,,,,,2,682.6510000000708,timeout,,,0.515,,,,,,,,,,,,,,,,,0.505,false,591228.799999997,591228.013,590728.458,590730.099999994,590745.129,591427.78,,,
stimulus,canvas.Screen,0_8_36_1,2022-07-15T22:08:18.123Z,,,,,,2,900.5199999969918,response,,0.515,0.515,,,https://raw.githubusercontent.com/carero2/loss-perception/main/png/0.515blue1yellowb%3D1w%3D100v%3D18.png,https://raw.githubusercontent.com/carero2/loss-perception/main/png/0.505blue1yellowb%3D1w%3D100v%3D18.png,,,,,,,,,true,j,keypress(j),0.505,0.505,false,592329.299999997,592328.299999997,591228.013,591442.700000003,591427.78,592360.172,,,
choice,canvas.Screen,0_8_36_2,2022-07-15T22:08:19.144Z,,,,0.505,,2,999.0109999999404,timeout,,,0.515,,0.515,,,-1,53,,,,,,,,,,,0.505,false,593350.200000003,593342.581,592347.117,592358.299999997,592360.172,593359.183,153,,
ITI,canvas.Screen,0_8_36_3,2022-07-15T22:08:19.637Z,,,2390,,,2,499.53899999998976,timeout,,,0.515,,,,,,,,,,,,,,,,,0.505,false,593843,593842.094,593342.581,593350.599999994,593359.183,593858.722,,,
trial,flow.Sequence,0_8_36,2022-07-15T22:08:19.637Z,,,,,,2,3096.965000000084,completion,,,0.515,,,,,,,,,,,,,,,,,0.505,false,593843.299999997,593842.094,590728.458,590730,590745.129,593858.722,,,
fixation,canvas.Screen,0_8_37_0,2022-07-15T22:08:20.144Z,,,,,,6,749.8300000000745,timeout,,,0.545,,,,,,,,,,,,,,,,,0.515,true,594350.700000003,594341.625,593842.094,593843.5,593858.722,594608.552,,,
stimulus,canvas.Screen,0_8_37_1,2022-07-15T22:08:21.129Z,,,,,,6,726.0479999940144,response,,0.515,0.545,,,https://raw.githubusercontent.com/carero2/loss-perception/main/png/0.515blue1yellowb%3D1w%3D100v%3D85.png,https://raw.githubusercontent.com/carero2/loss-perception/main/png/0.545blue1yellowb%3D1w%3D100v%3D85.png,,,,,,,,,true,j,keypress(j),0.545,0.515,true,595335.599999994,595334.599999994,594341.625,594622.099999994,594608.552,595373.835,,,
choice,canvas.Screen,0_8_37_2,2022-07-15T22:08:22.151Z,,,,0.545,,6,999.0470000000205,timeout,,,0.545,,0.515,,,-9,44,,,,,,,,,,,0.515,true,596357.599999994,596356.797,595358.361,595363.8999999911,595373.835,596372.882,144,,
ITI,canvas.Screen,0_8_37_3,2022-07-15T22:08:22.651Z,,,2795,,,6,499.43799999996554,timeout,,,0.545,,,,,,,,,,,,,,,,,0.515,true,596857.200000003,596856.288,596356.797,596357.8999999911,596372.882,596872.32,,,
trial,flow.Sequence,0_8_37,2022-07-15T22:08:22.651Z,,,,,,6,2997.5659999999916,completion,,,0.545,,,,,,,,,,,,,,,,,0.515,true,596857.599999994,596856.288,593842.094,593843.5,593858.722,596872.32,,,
fixation,canvas.Screen,0_8_38_0,2022-07-15T22:08:23.150Z,,,,,,2,699.3320000000531,timeout,,,0.495,,,,,,,,,,,,,,,,,0.485,false,597356.599999994,597355.797,596856.288,596857.700000003,596872.32,597571.652,,,
stimulus,canvas.Screen,0_8_38_1,2022-07-15T22:08:24.941Z,,,,,,2,1574.647999997018,response,,0.495,0.495,,,https://raw.githubusercontent.com/carero2/loss-perception/main/png/0.495blue1yellowb%3D1w%3D100v%3D98.png,https://raw.githubusercontent.com/carero2/loss-perception/main/png/0.485blue1yellowb%3D1w%3D100v%3D98.png,,,,,,,,,true,j,keypress(j),0.485,0.485,false,599147.799999997,599146.299999997,597355.797,597583.099999994,597571.652,599186.665,,,
choice,canvas.Screen,0_8_38_2,2022-07-15T22:08:25.964Z,,,,0.485,,2,999.060999999987,timeout,,,0.495,,0.495,,,3,47,,,,,,,,,,,0.485,false,600170.5,600169.682,599182.61,599182.599999994,599186.665,600185.726,147,,
ITI,canvas.Screen,0_8_38_3,2022-07-15T22:08:26.464Z,,,2916,,,2,499.5109999999404,timeout,,,0.495,,,,,,,,,,,,,,,,,0.485,false,600670,600669.175,600169.682,600170.700000003,600185.726,600685.237,,,
trial,flow.Sequence,0_8_38,2022-07-15T22:08:26.464Z,,,,,,2,3796.855000000098,completion,,,0.495,,,,,,,,,,,,,,,,,0.485,false,600670.200000003,600669.175,596856.288,596857.700000003,596872.32,600685.237,,,
fixation,canvas.Screen,0_8_39_0,2022-07-15T22:08:26.970Z,,,,,,4,749.8300000000745,timeout,,,0.51,,,,,,,,,,,,,,,,,0.49,true,601176.799999997,601168.41,600669.175,600670.5,600685.237,601435.067,,,
stimulus,canvas.Screen,0_8_39_1,2022-07-15T22:08:28.915Z,,,,,,4,1684.2329999969807,response,,0.49,0.51,,,https://raw.githubusercontent.com/carero2/loss-perception/main/png/0.49blue1yellowb%3D1w%3D100v%3D18.png,https://raw.githubusercontent.com/carero2/loss-perception/main/png/0.51blue1yellowb%3D1w%3D100v%3D18.png,,,,,,,,,true,f,keypress(f),0.51,0.49,true,603121.5,603119.299999997,601168.41,601448.299999997,601435.067,603166.551,,,
choice,canvas.Screen,0_8_39_2,2022-07-15T22:08:29.943Z,,,,0.49,,4,998.5559999999823,timeout,,,0.51,,0.51,,,2,49,,,,,,,,,,,0.49,true,604149.700000003,604148.949,603149.789,603153.299999997,603166.551,604165.107,149,,
ITI,canvas.Screen,0_8_39_3,2022-07-15T22:08:30.450Z,,,2011,,,4,499.41700000001583,timeout,,,0.51,,,,,,,,,,,,,,,,,0.49,true,604656.099999994,604647.977,604148.949,604150.5,604165.107,604664.524,,,
trial,flow.Sequence,0_8_39,2022-07-15T22:08:30.450Z,,,,,,4,3962.7399999999907,completion,,,0.51,,,,,,,,,,,,,,,,,0.49,true,604656.299999997,604647.977,600669.175,600670.3999999911,600685.237,604664.524,,,
fixation,canvas.Screen,0_8_40_0,2022-07-15T22:08:30.942Z,,,,,,6,716.1940000000177,timeout,,,0.485,,,,,,,,,,,,,,,,,0.455,false,605148.700000003,605148.061,604647.977,604656.5,604664.524,605380.718,,,
stimulus,canvas.Screen,0_8_40_1,2022-07-15T22:08:31.812Z,,,,,,6,636.4820000029868,response,,0.485,0.485,,,https://raw.githubusercontent.com/carero2/loss-perception/main/png/0.485blue1yellowb%3D1w%3D100v%3D65.png,https://raw.githubusercontent.com/carero2/loss-perception/main/png/0.455blue1yellowb%3D1w%3D100v%3D65.png,,,,,,,,,true,j,keypress(j),0.455,0.455,false,606018.5,606017.200000003,605148.061,605394.099999994,605380.718,606063.157,,,
choice,canvas.Screen,0_8_40_2,2022-07-15T22:08:32.841Z,,,,0.455,,6,999.0849999999627,timeout,,,0.485,,0.485,,,9,58,,,,,,,,,,,0.455,false,607047.5,607046.175,606049.481,606049.700000003,606063.157,607062.242,158,,
ITI,canvas.Screen,0_8_40_3,2022-07-15T22:08:33.340Z,,,2228,,,6,499.45799999998417,timeout,,,0.485,,,,,,,,,,,,,,,,,0.455,false,607546.3999999911,607545.675,607046.175,607047.799999997,607062.242,607561.7,,,
trial,flow.Sequence,0_8_40,2022-07-15T22:08:33.340Z,,,,,,6,2881.151000000071,completion,,,0.485,,,,,,,,,,,,,,,,,0.455,false,607546.700000003,607545.675,604647.977,604656.3999999911,604664.524,607561.7,,,
fixation,canvas.Screen,0_8_41_0,2022-07-15T22:08:33.845Z,,,,,,4,699.3340000000317,timeout,,,0.49,,,,,,,,,,,,,,,,,0.47,false,608051,608044.636,607545.675,607546.8999999911,607561.7,608261.034,,,
stimulus,canvas.Screen,0_8_41_1,2022-07-15T22:08:35.000Z,,,,,,4,943.4660000000149,response,,0.49,0.49,,,https://raw.githubusercontent.com/carero2/loss-perception/main/png/0.49blue1yellowb%3D1w%3D100v%3D8.png,https://raw.githubusercontent.com/carero2/loss-perception/main/png/0.47blue1yellowb%3D1w%3D100v%3D8.png,,,,,,,,,true,f,keypress(f),0.47,0.47,false,609206.3999999911,609204.5,608044.636,608275.3999999911,608261.034,609259.974,,,
choice,canvas.Screen,0_8_41_2,2022-07-15T22:08:36.037Z,,,,0.49,,4,999.030999999959,timeout,,,0.49,,0.47,,,2,60,,,,,,,,,,,0.47,false,610243.700000003,610242.837,609244.958,609246.700000003,609259.974,610259.005,160,,
ITI,canvas.Screen,0_8_41_3,2022-07-15T22:08:36.537Z,,,2843,,,4,499.5030000000261,timeout,,,0.49,,,,,,,,,,,,,,,,,0.47,false,610743.299999997,610742.493,610242.837,610243.8999999911,610259.005,610758.508,,,
trial,flow.Sequence,0_8_41,2022-07-15T22:08:36.537Z,,,,,,4,3180.7930000000633,completion,,,0.49,,,,,,,,,,,,,,,,,0.47,false,610743.5,610742.493,607545.675,607546.799999997,607561.7,610758.508,,,
fixation,canvas.Screen,0_8_42_0,2022-07-15T22:08:37.036Z,,,,,,6,516.2249999999767,timeout,,,0.515,,,,,,,,,,,,,,,,,0.485,true,611242.700000003,611241.926,610742.493,610743.700000003,610758.508,611274.733,,,
stimulus,canvas.Screen,0_8_42_1,2022-07-15T22:08:38.819Z,,,,,,6,1749.866999994032,response,,0.485,0.515,,,https://raw.githubusercontent.com/carero2/loss-perception/main/png/0.485blue1yellowb%3D1w%3D100v%3D87.png,https://raw.githubusercontent.com/carero2/loss-perception/main/png/0.515blue1yellowb%3D1w%3D100v%3D87.png,,,,,,,,,true,f,keypress(f),0.515,0.485,true,613025.8999999911,613024.599999994,611241.926,611276.3999999911,611274.733,613072.945,,,
choice,canvas.Screen,0_8_42_2,2022-07-15T22:08:39.851Z,,,,0.485,,6,998.9340000000084,timeout,,,0.515,,0.515,,,3,63,,,,,,,,,,,0.485,true,614057.099999994,614055.871,613054.036,613056.099999994,613072.945,614071.879,163,,
ITI,canvas.Screen,0_8_42_3,2022-07-15T22:08:40.350Z,,,2505,,,6,499.54300000006333,timeout,,,0.515,,,,,,,,,,,,,,,,,0.485,true,614556.200000003,614555.372,614055.871,614057.5,614071.879,614571.422,,,
trial,flow.Sequence,0_8_42,2022-07-15T22:08:40.350Z,,,,,,6,3796.863999999943,completion,,,0.515,,,,,,,,,,,,,,,,,0.485,true,614556.3999999911,614555.372,610742.493,610743.599999994,610758.508,614571.422,,,
fixation,canvas.Screen,0_8_43_0,2022-07-15T22:08:40.849Z,,,,,,2,732.6139999999432,timeout,,,0.505,,,,,,,,,,,,,,,,,0.495,false,615055.5,615054.794,614555.372,614556.700000003,614571.422,615304.036,,,
stimulus,canvas.Screen,0_8_43_1,2022-07-15T22:08:43.539Z,,,,,,2,2439.8639999910956,response,,0.505,0.505,,,https://raw.githubusercontent.com/carero2/loss-perception/main/png/0.505blue1yellowb%3D1w%3D100v%3D83.png,https://raw.githubusercontent.com/carero2/loss-perception/main/png/0.495blue1yellowb%3D1w%3D100v%3D83.png,,,,,,,,,true,f,keypress(f),0.495,0.495,false,617745.299999997,617743.8999999911,615054.794,615317.700000003,615304.036,617801.522,,,
choice,canvas.Screen,0_8_43_2,2022-07-15T22:08:44.578Z,,,,0.505,,2,999.0590000000084,timeout,,,0.505,,0.495,,,-1,62,,,,,,,,,,,0.495,false,618784.599999994,618783.883,617768.089,617774.700000003,617801.522,618800.581,162,,
ITI,canvas.Screen,0_8_43_3,2022-07-15T22:08:45.078Z,,,2287,,,2,499.4899999999907,timeout,,,0.505,,,,,,,,,,,,,,,,,0.495,false,619284.799999997,619283.995,618783.883,618784.8999999911,618800.581,619300.071,,,
trial,flow.Sequence,0_8_43,2022-07-15T22:08:45.079Z,,,,,,2,4712.572999999975,completion,,,0.505,,,,,,,,,,,,,,,,,0.495,false,619285.200000003,619283.995,614555.372,614556.5,614571.422,619300.071,,,
fixation,canvas.Screen,0_8_44_0,2022-07-15T22:08:45.585Z,,,,,,4,766.5200000000186,timeout,,,0.53,,,,,,,,,,,,,,,,,0.51,true,619791,619782.886,619283.995,619285.3999999911,619300.071,620066.591,,,
stimulus,canvas.Screen,0_8_44_1,2022-07-15T22:08:47.443Z,,,,,,4,1580.5089999940246,response,,0.51,0.53,,,https://raw.githubusercontent.com/carero2/loss-perception/main/png/0.51blue1yellowb%3D1w%3D100v%3D49.png,https://raw.githubusercontent.com/carero2/loss-perception/main/png/0.53blue1yellowb%3D1w%3D100v%3D49.png,,,,,,,,,true,f,keypress(f),0.53,0.51,true,621649.200000003,621647.099999994,619782.886,620080.299999997,620066.591,621680.968,,,
choice,canvas.Screen,0_8_44_2,2022-07-15T22:08:48.458Z,,,,0.51,,4,999.0550000000512,timeout,,,0.53,,0.53,,,-2,60,,,,,,,,,,,0.51,true,622664.099999994,622663.364,621671.335,621679,621680.968,622680.023,160,,
ITI,canvas.Screen,0_8_44_3,2022-07-15T22:08:48.958Z,,,2906,,,4,499.4989999999525,timeout,,,0.53,,,,,,,,,,,,,,,,,0.51,true,623164.299999997,623163.51,622663.364,622664.3999999911,622680.023,623179.522,,,
trial,flow.Sequence,0_8_44,2022-07-15T22:08:48.958Z,,,,,,4,3863.439000000013,completion,,,0.53,,,,,,,,,,,,,,,,,0.51,true,623164.700000003,623163.51,619283.995,619285.299999997,619300.071,623179.522,,,
1st block,flow.Loop,0_8,2022-07-15T22:08:48.959Z,,,,,,,153198.276,completion,,,,,,,,,,,,,,,,,,,,,,623164.8999999911,623163.51,469950.207,469961.09999999404,469965.234,623179.522,,,
show amount,html.Screen,0_9,2022-07-15T22:08:58.468Z,,,,,,,9487.178000002983,response,,,,,,,,,,,,,,,,,Continue,click #Continue,,,,632674.299999997,632666.700000003,623163.51,623166.3999999911,623179.522,632670.041,,,
second block,canvas.Screen,0_10,2022-07-15T22:09:00.600Z,,,,,,,2135.4590000000317,response,,,,,,,,,,,,,,,,,space,keypress(Space),,,,634806.8999999911,634805.5,632653.46,632674.599999994,632670.041,634817.961,,,
fixation,canvas.Screen,0_11_0_0,2022-07-15T22:09:01.096Z,,,,,,4,749.2550000000047,timeout,,,0.53,,,,,,,,,,,,,,,,,0.51,false,635302.099999994,635301.286,634801.01,634807.299999997,634817.961,635567.216,,,
stimulus,canvas.Screen,0_11_0_1,2022-07-15T22:09:02.198Z,,,,,,4,835.6839999910444,response,,0.53,0.53,,,https://raw.githubusercontent.com/carero2/loss-perception/main/png/0.53blue1yellowb%3D1w%3D100v%3D89.png,https://raw.githubusercontent.com/carero2/loss-perception/main/png/0.51blue1yellowb%3D1w%3D100v%3D89.png,,,,,,,,,true,j,keypress(j),0.51,0.51,false,636404.599999994,636402.8999999911,635301.286,635580.700000003,635567.216,636449.67,,,
choice,canvas.Screen,0_11_0_2,2022-07-15T22:09:03.238Z,,,,0.51,,4,999.064000000013,timeout,,,0.53,,0.53,,,-2,,-2,,,,,,,,,,0.51,false,637444.799999997,637432.025,636433.915,636440.700000003,636449.67,637448.734,158,,
ITI,canvas.Screen,0_11_0_3,2022-07-15T22:09:03.727Z,,,2182,,,4,499.60999999998603,timeout,,,0.53,,,,,,,,,,,,,,,,,0.51,false,637933,637932.055,637432.025,637445,637448.734,637948.344,,,
trial,flow.Sequence,0_11_0,2022-07-15T22:09:03.727Z,,,,,,4,3114.094000000041,completion,,,0.53,,,,,,,,,,,,,,,,,0.51,false,637933.599999994,637932.055,634801.01,634807.200000003,634817.961,637948.344,,,
fixation,canvas.Screen,0_11_1_0,2022-07-15T22:09:04.226Z,,,,,,4,782.4109999999637,timeout,,,0.49,,,,,,,,,,,,,,,,,0.47,true,638432,638431.056,637932.055,637933.700000003,637948.344,638730.755,,,
stimulus,canvas.Screen,0_11_1_1,2022-07-15T22:09:05.467Z,,,,,,4,938.1449999910546,response,,0.47,0.49,,,https://raw.githubusercontent.com/carero2/loss-perception/main/png/0.47blue1yellowb%3D1w%3D100v%3D31.png,https://raw.githubusercontent.com/carero2/loss-perception/main/png/0.49blue1yellowb%3D1w%3D100v%3D31.png,,,,,,,,,true,f,keypress(f),0.49,0.47,true,639673.799999997,639668.8999999911,638431.056,638749.200000003,638730.755,639729.734,,,
choice,canvas.Screen,0_11_1_2,2022-07-15T22:09:06.507Z,,,,0.47,,4,999.0559999999823,timeout,,,0.49,,0.49,,,6,,4,,,,,,,,,,0.47,true,640713.799999997,640712.828,639712.629,639715.5,639729.734,640728.79,164,,
ITI,canvas.Screen,0_11_1_3,2022-07-15T22:09:07.006Z,,,2530,,,4,499.50399999995716,timeout,,,0.49,,,,,,,,,,,,,,,,,0.47,true,641212.599999994,641211.628,640712.828,640714,640728.79,641228.294,,,
trial,flow.Sequence,0_11_1,2022-07-15T22:09:07.007Z,,,,,,4,3263.283999999985,completion,,,0.49,,,,,,,,,,,,,,,,,0.47,true,641213.099999994,641211.628,637932.055,637933.700000003,637948.344,641228.294,,,
fixation,canvas.Screen,0_11_2_0,2022-07-15T22:09:07.506Z,,,,,,2,532.7430000000168,timeout,,,0.515,,,,,,,,,,,,,,,,,0.505,true,641712.5,641711.601,641211.628,641213.3999999911,641228.294,641761.037,,,
stimulus,canvas.Screen,0_11_2_1,2022-07-15T22:09:08.759Z,,,,,,2,1202.7629999970086,response,,0.505,0.515,,,https://raw.githubusercontent.com/carero2/loss-perception/main/png/0.505blue1yellowb%3D1w%3D100v%3D88.png,https://raw.githubusercontent.com/carero2/loss-perception/main/png/0.515blue1yellowb%3D1w%3D100v%3D88.png,,,,,,,,,true,f,keypress(f),0.515,0.505,true,642965,642963.799999997,641711.601,641779.5,641761.037,643009.829,,,
choice,canvas.Screen,0_11_2_2,2022-07-15T22:09:09.787Z,,,,0.505,,2,998.9449999999488,timeout,,,0.515,,0.515,,,-1,,3,,,,,,,,,,0.505,true,643993.099999994,643992.229,642993.102,642995.799999997,643009.829,644008.774,163,,
ITI,canvas.Screen,0_11_2_3,2022-07-15T22:09:10.286Z,,,2007,,,2,499.57700000004843,timeout,,,0.515,,,,,,,,,,,,,,,,,0.505,true,644492.8999999911,644492.032,643992.229,643993.3999999911,644008.774,644508.351,,,
trial,flow.Sequence,0_11_2,2022-07-15T22:09:10.287Z,,,,,,2,3263.738000000012,completion,,,0.515,,,,,,,,,,,,,,,,,0.505,true,644493.3999999911,644492.032,641211.628,641213.299999997,641228.294,644508.351,,,
fixation,canvas.Screen,0_11_3_0,2022-07-15T22:09:10.786Z,,,,,,6,782.5840000000317,timeout,,,0.545,,,,,,,,,,,,,,,,,0.515,true,644992.5,644991.791,644492.032,644493.599999994,644508.351,645290.935,,,
stimulus,canvas.Screen,0_11_3_1,2022-07-15T22:09:12.256Z,,,,,,6,1163.4649999910034,response,,0.515,0.545,,,https://raw.githubusercontent.com/carero2/loss-perception/main/png/0.515blue1yellowb%3D1w%3D100v%3D42.png,https://raw.githubusercontent.com/carero2/loss-perception/main/png/0.545blue1yellowb%3D1w%3D100v%3D42.png,,,,,,,,,true,f,keypress(f),0.545,0.515,true,646455.799999997,646454.3999999911,644991.791,645304.599999994,645290.935,646489.623,,,
choice,canvas.Screen,0_11_3_2,2022-07-15T22:09:13.273Z,,,,0.515,,6,999.0259999999544,timeout,,,0.545,,0.545,,,-3,,0,,,,,,,,,,0.515,true,647472.8999999911,647472.08,646473.349,646482.8999999911,646489.623,647488.649,160,,
ITI,canvas.Screen,0_11_3_3,2022-07-15T22:09:13.772Z,,,2975,,,6,499.57500000006985,timeout,,,0.545,,,,,,,,,,,,,,,,,0.515,true,647972.599999994,647971.862,647472.08,647473.099999994,647488.649,647988.224,,,
trial,flow.Sequence,0_11_3,2022-07-15T22:09:13.773Z,,,,,,6,3463.5109999999404,completion,,,0.545,,,,,,,,,,,,,,,,,0.515,true,647973,647971.862,644492.032,644493.599999994,644508.351,647988.224,,,
fixation,canvas.Screen,0_11_4_0,2022-07-15T22:09:14.280Z,,,,,,2,782.5489999999991,timeout,,,0.505,,,,,,,,,,,,,,,,,0.495,true,648480.5,648471.279,647971.862,647973.200000003,647988.224,648770.773,,,
