sender,sender_type,sender_id,timestamp,meta,,ITI_value,choice,consent,diff_net_value,duration,ended_on,gain_color,left,left_side,loss_color,not_choice,picture_left,picture_right,points,points1Block,points2Block,points3Block,points4Block,points5Block,points6Block,pointsBlock,responded,response,response_action,right,right_side,switch_sides,time_commit,time_end,time_render,time_run,time_show,time_switch,totalPoints,totalPoints_practice,url
welcome,html.Screen,0_0,2022-07-15T15:45:56.692Z,"{""labjs_version"":""20.2.4"",""labjs_build"":{""flavor"":""production"",""commit"":""f5b4a49f956347addd546a832a3327688c2c0fef""},""location"":""https://run.pavlovia.org/Rey/loss-perception/"",""userAgent"":""Mozilla/5.0 (Windows NT 10.0; Win64; x64; rv:102.0) Gecko/20100101 Firefox/102.0"",""platform"":""Win32"",""language"":""en-US"",""locale"":""en-GB"",""timeZone"":""Europe/London"",""timezoneOffset"":-60,""screen_width"":1920,""screen_height"":1080,""scroll_width"":1920,""scroll_height"":907,""window_innerWidth"":1920,""window_innerHeight"":955,""devicePixelRatio"":1}",,,,,,2769.8199999999997,response,blue,,,yellow,,,,,0,0,0,0,0,0,0,,Continue,click #Continue,,,,7626,7615,4831.64,4808,4845.18,7628.48,100,100,{}
consent,html.Form,0_1,2022-07-15T15:46:08.313Z,,,,,true,,11618.52,form submission,,,,,,,,,,,,,,,,,,,,,,19247,19247,7625.1,7626,7628.48,19245.38,,,
ProlificID,html.Form,0_2,2022-07-15T15:46:13.643Z,,,,,,,5331.619999999999,form submission,,,,,,,,,,,,,,,,,,,,,,24578,24577,19235.14,19248,19245.38,24578.9,,,
instructions,html.Form,0_3,2022-07-15T15:47:15.096Z,,,,,,,61450.1,form submission,,,,,,,,,,,,,,,,,,,,,,86030,86029,24576.1,24578,24578.9,86030.24,,,
Practice,canvas.Screen,0_4,2022-07-15T15:47:33.429Z,,,,,,,18317.759999999995,response,,,,,,,,,,,,,,,,,space,keypress(Space),,,,104363,104348,86028.04,86031,86030.24,104364.84,,,
fixation,canvas.Screen,0_5_0_0,2022-07-15T15:47:33.915Z,,,,,,12,499.22000000000116,timeout,,,0.53,,,,,,,,,,,,,,,,,0.47,false,104848,104847.38,104364.32,104364,104364.84,104864.06,,,
stimulus,canvas.Screen,0_5_0_1,2022-07-15T15:47:36.915Z,,,,,,12,3000.100000000006,timeout,,0.53,0.53,,,https://raw.githubusercontent.com/carero2/loss-perception/main/png/0.53blue1yellowb%3D1w%3D100v%3D28.png,https://raw.githubusercontent.com/carero2/loss-perception/main/png/0.47blue1yellowb%3D1w%3D100v%3D28.png,,,,,,,,,,,,0.47,0.47,false,107848,107847.48,104847.38,104850,104864.06,107864.16,,,
choice,canvas.Screen,0_5_0_2,2022-07-15T15:47:36.934Z,,,,0,,12,NaN,skipped,,,0.53,,0,,,0,,,,,,,0,false,timeout,,,0.47,false,107868,107847.48,,107867,,107864.16,,100,
timeout,canvas.Screen,0_5_0_3,2022-07-15T15:47:38.915Z,,,,,,12,2000.0399999999936,timeout,,,0.53,,,,,,,,,,,,,,,,,0.47,false,109849,109847.54,107847.48,107874,107864.16,109864.2,,,
ITI,canvas.Screen,0_5_0_4,2022-07-15T15:47:39.415Z,,,,,,12,500,timeout,,,0.53,,,,,,,,,,,,,,,,,0.47,false,110348,110347.54,109847.54,109850,109864.2,110364.2,,,
trial,flow.Sequence,0_5_0,2022-07-15T15:47:39.417Z,,,,,,12,5982.699999999997,completion,,,0.53,,,,,,,,,,,,,,,,,0.47,false,110350,110347.54,104364.32,104364,104364.84,110364.2,,,
fixation,canvas.Screen,0_5_1_0,2022-07-15T15:47:39.915Z,,,,,,9,500.0200000000041,timeout,,,0.485,,,,,,,,,,,,,,,,,0.53,true,110849,110847.54,110347.54,110351,110364.2,110864.22,,,
stimulus,canvas.Screen,0_5_1_1,2022-07-15T15:47:41.432Z,,,,,,9,1483.7799999999988,response,,0.53,0.485,,,https://raw.githubusercontent.com/carero2/loss-perception/main/png/0.53blue1yellowb%3D1w%3D100v%3D44.png,https://raw.githubusercontent.com/carero2/loss-perception/main/png/0.485blue1yellowb%3D1w%3D100v%3D44.png,,,,,,,,,true,j,keypress(j),0.485,0.53,true,112366,112348,110847.54,110850,110864.22,112380.96,,,
choice,canvas.Screen,0_5_1_2,2022-07-15T15:47:43.434Z,,,,0.485,,9,2000,timeout,,,0.485,,0.53,,,-3,,,,,,,-3,,,,,0.53,true,114368,114364.3,112378.28,112378,112380.96,114380.96,,97,
timeout,canvas.Screen,0_5_1_3,2022-07-15T15:47:43.448Z,,,,,,9,NaN,skipped,,,0.485,,,,,,,,,,,,,,,,,0.53,true,114382,114364.3,,114380,,114380.96,,,
ITI,canvas.Screen,0_5_1_4,2022-07-15T15:47:43.932Z,,,,,,9,500,timeout,,,0.485,,,,,,,,,,,,,,,,,0.53,true,114866,114864.3,114364.3,114382,114380.96,114880.96,,,
trial,flow.Sequence,0_5_1,2022-07-15T15:47:43.933Z,,,,,,9,4500.100000000006,completion,,,0.485,,,,,,,,,,,,,,,,,0.53,true,114867,114864.3,110347.54,110351,110364.2,114880.96,,,
fixation,canvas.Screen,0_5_2_0,2022-07-15T15:47:44.432Z,,,,,,6,500.0199999999895,timeout,,,0.545,,,,,,,,,,,,,,,,,0.515,false,115366,115364.32,114864.3,114869,114880.96,115380.98,,,
stimulus,canvas.Screen,0_5_2_1,2022-07-15T15:47:45.571Z,,,,,,6,1109.020000000004,response,,0.545,0.545,,,https://raw.githubusercontent.com/carero2/loss-perception/main/png/0.545blue1yellowb%3D1w%3D100v%3D13.png,https://raw.githubusercontent.com/carero2/loss-perception/main/png/0.515blue1yellowb%3D1w%3D100v%3D13.png,,,,,,,,,true,f,keypress(f),0.515,0.515,false,116505,116490,115364.32,115367,115380.98,116522.88,,,
choice,canvas.Screen,0_5_2_2,2022-07-15T15:47:47.581Z,,,,0.545,,6,2008.179999999993,timeout,,,0.545,,0.515,,,9,,,,,,,6,,,,,0.515,false,118516,118514.38,116522.38,116523,116522.88,118531.06,,106,
timeout,canvas.Screen,0_5_2_3,2022-07-15T15:47:47.589Z,,,,,,6,NaN,skipped,,,0.545,,,,,,,,,,,,,,,,,0.515,false,118522,118514.38,,118522,,118531.06,,,
ITI,canvas.Screen,0_5_2_4,2022-07-15T15:47:48.082Z,,,,,,6,500,timeout,,,0.545,,,,,,,,,,,,,,,,,0.515,false,119016,119014.38,118514.38,118523,118531.06,119031.06,,,
trial,flow.Sequence,0_5_2,2022-07-15T15:47:48.083Z,,,,,,6,4133.419999999998,completion,,,0.545,,,,,,,,,,,,,,,,,0.515,false,119017,119014.38,114864.3,114868,114880.96,119031.06,,,
fixation,canvas.Screen,0_5_3_0,2022-07-15T15:47:48.583Z,,,,,,18,500,timeout,,,0.545,,,,,,,,,,,,,,,,,0.455,false,119516,119514.4,119014.38,119018,119031.06,119531.06,,,
stimulus,canvas.Screen,0_5_3_1,2022-07-15T15:47:50.084Z,,,,,,18,1472.9400000000023,response,,0.545,0.545,,,https://raw.githubusercontent.com/carero2/loss-perception/main/png/0.545blue1yellowb%3D1w%3D100v%3D69.png,https://raw.githubusercontent.com/carero2/loss-perception/main/png/0.455blue1yellowb%3D1w%3D100v%3D69.png,,,,,,,,,true,j,keypress(j),0.455,0.455,false,121017,121004,119514.4,119517,119531.06,121031.3,,,
choice,canvas.Screen,0_5_3_2,2022-07-15T15:47:52.082Z,,,,0.455,,18,1999.8399999999965,timeout,,,0.545,,0.545,,,-9,,,,,,,-3,,,,,0.455,false,123015,123014.48,121028.46,121029,121031.3,123031.14,,97,
timeout,canvas.Screen,0_5_3_3,2022-07-15T15:47:52.087Z,,,,,,18,NaN,skipped,,,0.545,,,,,,,,,,,,,,,,,0.455,false,123021,123014.48,,123020,,123031.14,,,
ITI,canvas.Screen,0_5_3_4,2022-07-15T15:47:52.582Z,,,,,,18,500.0200000000041,timeout,,,0.545,,,,,,,,,,,,,,,,,0.455,false,123516,123514.48,123014.48,123021,123031.14,123531.16,,,
trial,flow.Sequence,0_5_3,2022-07-15T15:47:52.583Z,,,,,,18,4483.419999999998,completion,,,0.545,,,,,,,,,,,,,,,,,0.455,false,123516,123514.48,119014.38,119017,119031.06,123531.16,,,
fixation,canvas.Screen,0_5_4_0,2022-07-15T15:47:53.082Z,,,,,,6,500,timeout,,,0.515,,,,,,,,,,,,,,,,,0.485,false,124015,124014.48,123514.48,123517,123531.16,124031.16,,,
stimulus,canvas.Screen,0_5_4_1,2022-07-15T15:47:54.700Z,,,,,,6,1582.8399999999965,response,,0.515,0.515,,,https://raw.githubusercontent.com/carero2/loss-perception/main/png/0.515blue1yellowb%3D1w%3D100v%3D82.png,https://raw.githubusercontent.com/carero2/loss-perception/main/png/0.485blue1yellowb%3D1w%3D100v%3D82.png,,,,,,,,,true,f,keypress(f),0.485,0.485,false,125634,125614,124014.48,124016,124031.16,125647.86,,,
choice,canvas.Screen,0_5_4_2,2022-07-15T15:47:56.699Z,,,,0.515,,6,2000.0599999999977,timeout,,,0.515,,0.485,,,3,,,,,,,0,,,,,0.485,false,127632,127631.24,125644.6,125645,125647.86,127647.92,,100,
timeout,canvas.Screen,0_5_4_3,2022-07-15T15:47:56.704Z,,,,,,6,NaN,skipped,,,0.515,,,,,,,,,,,,,,,,,0.485,false,127638,127631.24,,127637,,127647.92,,,
ITI,canvas.Screen,0_5_4_4,2022-07-15T15:47:57.198Z,,,,,,6,499.9799999999959,timeout,,,0.515,,,,,,,,,,,,,,,,,0.485,false,128132,128131.22,127631.24,127638,127647.92,128147.9,,,
trial,flow.Sequence,0_5_4,2022-07-15T15:47:57.199Z,,,,,,6,4600.059999999998,completion,,,0.515,,,,,,,,,,,,,,,,,0.485,false,128133,128131.22,123514.48,123517,123531.16,128147.9,,,
fixation,canvas.Screen,0_5_5_0,2022-07-15T15:47:57.698Z,,,,,,6,500.0200000000041,timeout,,,0.485,,,,,,,,,,,,,,,,,0.455,true,128632,128631.24,128131.22,128133,128147.9,128647.92,,,
stimulus,canvas.Screen,0_5_5_1,2022-07-15T15:47:58.862Z,,,,,,6,1138.0800000000017,response,,0.455,0.485,,,https://raw.githubusercontent.com/carero2/loss-perception/main/png/0.455blue1yellowb%3D1w%3D100v%3D90.png,https://raw.githubusercontent.com/carero2/loss-perception/main/png/0.485blue1yellowb%3D1w%3D100v%3D90.png,,,,,,,,,true,j,keypress(j),0.485,0.455,true,129795,129786,128631.24,128633,128647.92,129814.7,,,
choice,canvas.Screen,0_5_5_2,2022-07-15T15:48:00.865Z,,,,0.485,,6,1999.9400000000169,timeout,,,0.485,,0.455,,,-3,,,,,,,-3,,,,,0.455,true,131799,131797.96,129810.26,129810,129814.7,131814.64,,97,
timeout,canvas.Screen,0_5_5_3,2022-07-15T15:48:00.871Z,,,,,,6,NaN,skipped,,,0.485,,,,,,,,,,,,,,,,,0.455,true,131804,131797.96,,131803,,131814.64,,,
ITI,canvas.Screen,0_5_5_4,2022-07-15T15:48:01.366Z,,,,,,6,500.03999999997905,timeout,,,0.485,,,,,,,,,,,,,,,,,0.455,true,132299,132298,131797.96,131804,131814.64,132314.68,,,
trial,flow.Sequence,0_5_5,2022-07-15T15:48:01.366Z,,,,,,6,4150.100000000006,completion,,,0.485,,,,,,,,,,,,,,,,,0.455,true,132299,132298,128131.22,128133,128147.9,132314.68,,,
fixation,canvas.Screen,0_5_6_0,2022-07-15T15:48:01.865Z,,,,,,6,499.96000000002095,timeout,,,0.485,,,,,,,,,,,,,,,,,0.455,true,132799,132797.98,132298,132300,132314.68,132814.64,,,
stimulus,canvas.Screen,0_5_6_1,2022-07-15T15:48:02.906Z,,,,,,6,1018.359999999986,response,,0.455,0.485,,,https://raw.githubusercontent.com/carero2/loss-perception/main/png/0.455blue1yellowb%3D1w%3D100v%3D85.png,https://raw.githubusercontent.com/carero2/loss-perception/main/png/0.485blue1yellowb%3D1w%3D100v%3D85.png,,,,,,,,,true,j,keypress(j),0.485,0.455,true,133840,133833,132797.98,132800,132814.64,133849,,,
choice,canvas.Screen,0_5_6_2,2022-07-15T15:48:04.899Z,,,,0.485,,6,1999.0799999999872,timeout,,,0.485,,0.455,,,-3,,,,,,,-6,,,,,0.455,true,135832,135831.42,133848.46,133848,133849,135848.08,,94,
timeout,canvas.Screen,0_5_6_3,2022-07-15T15:48:04.903Z,,,,,,6,NaN,skipped,,,0.485,,,,,,,,,,,,,,,,,0.455,true,135837,135831.42,,135836,,135848.08,,,
ITI,canvas.Screen,0_5_6_4,2022-07-15T15:48:05.398Z,,,,,,6,500.0200000000186,timeout,,,0.485,,,,,,,,,,,,,,,,,0.455,true,136332,136331.42,135831.42,135837,135848.08,136348.1,,,
trial,flow.Sequence,0_5_6,2022-07-15T15:48:05.399Z,,,,,,6,4016.74000000002,completion,,,0.485,,,,,,,,,,,,,,,,,0.455,true,136334,136331.42,132298,132300,132314.68,136348.1,,,
fixation,canvas.Screen,0_5_7_0,2022-07-15T15:48:05.898Z,,,,,,6,500,timeout,,,0.545,,,,,,,,,,,,,,,,,0.515,true,136832,136831.44,136331.42,136334,136348.1,136848.1,,,
stimulus,canvas.Screen,0_5_7_1,2022-07-15T15:48:06.721Z,,,,,,6,796.8999999999942,response,,0.515,0.545,,,https://raw.githubusercontent.com/carero2/loss-perception/main/png/0.515blue1yellowb%3D1w%3D100v%3D93.png,https://raw.githubusercontent.com/carero2/loss-perception/main/png/0.545blue1yellowb%3D1w%3D100v%3D93.png,,,,,,,,,true,j,keypress(j),0.545,0.515,true,137656,137645,136831.44,136833,136848.1,137664.66,,,
choice,canvas.Screen,0_5_7_2,2022-07-15T15:48:08.716Z,,,,0.545,,6,2000.179999999993,timeout,,,0.545,,0.515,,,9,,,,,,,3,,,,,0.515,true,139649,139648.16,137664.16,137665,137664.66,139664.84,,103,
timeout,canvas.Screen,0_5_7_3,2022-07-15T15:48:08.719Z,,,,,,6,NaN,skipped,,,0.545,,,,,,,,,,,,,,,,,0.515,true,139653,139648.16,,139653,,139664.84,,,
ITI,canvas.Screen,0_5_7_4,2022-07-15T15:48:09.215Z,,,,,,6,500,timeout,,,0.545,,,,,,,,,,,,,,,,,0.515,true,140149,140148.18,139648.16,139654,139664.84,140164.84,,,
trial,flow.Sequence,0_5_7,2022-07-15T15:48:09.216Z,,,,,,6,3800.079999999987,completion,,,0.545,,,,,,,,,,,,,,,,,0.515,true,140150,140148.18,136331.42,136334,136348.1,140164.84,,,
fixation,canvas.Screen,0_5_8_0,2022-07-15T15:48:09.715Z,,,,,,18,499.9800000000105,timeout,,,0.545,,,,,,,,,,,,,,,,,0.455,true,140649,140648.18,140148.18,140151,140164.84,140664.82,,,
stimulus,canvas.Screen,0_5_8_1,2022-07-15T15:48:10.495Z,,,,,,18,747.179999999993,response,,0.455,0.545,,,https://raw.githubusercontent.com/carero2/loss-perception/main/png/0.455blue1yellowb%3D1w%3D100v%3D12.png,https://raw.githubusercontent.com/carero2/loss-perception/main/png/0.545blue1yellowb%3D1w%3D100v%3D12.png,,,,,,,,,true,j,keypress(j),0.545,0.455,true,141428,141412,140648.18,140649,140664.82,141432.22,,,
choice,canvas.Screen,0_5_8_2,2022-07-15T15:48:12.482Z,,,,0.545,,18,1999.3399999999965,timeout,,,0.545,,0.455,,,9,,,,,,,12,,,,,0.455,true,143416,143414.92,141432,141431,141432.22,143431.56,,112,
timeout,canvas.Screen,0_5_8_3,2022-07-15T15:48:12.487Z,,,,,,18,NaN,skipped,,,0.545,,,,,,,,,,,,,,,,,0.455,true,143420,143414.92,,143420,,143431.56,,,
ITI,canvas.Screen,0_5_8_4,2022-07-15T15:48:12.984Z,,,,,,18,500.0199999999895,timeout,,,0.545,,,,,,,,,,,,,,,,,0.455,true,143918,143914.9,143414.92,143422,143431.56,143931.58,,,
trial,flow.Sequence,0_5_8,2022-07-15T15:48:12.988Z,,,,,,18,3750.0599999999977,completion,,,0.545,,,,,,,,,,,,,,,,,0.455,true,143921,143914.9,140148.18,140151,140164.84,143931.58,,,
fixation,canvas.Screen,0_5_9_0,2022-07-15T15:48:13.483Z,,,,,,9,500.0200000000186,timeout,,,0.485,,,,,,,,,,,,,,,,,0.53,false,144416,144414.94,143914.9,143923,143931.58,144431.6,,,
stimulus,canvas.Screen,0_5_9_1,2022-07-15T15:48:14.647Z,,,,,,9,1135.3999999999942,response,,0.485,0.485,,,https://raw.githubusercontent.com/carero2/loss-perception/main/png/0.485blue1yellowb%3D1w%3D100v%3D45.png,https://raw.githubusercontent.com/carero2/loss-perception/main/png/0.53blue1yellowb%3D1w%3D100v%3D45.png,,,,,,,,,true,j,keypress(j),0.53,0.53,false,145581,145567,144414.94,144417,144431.6,145598.82,,,
choice,canvas.Screen,0_5_9_2,2022-07-15T15:48:16.650Z,,,,0.53,,9,1999.5199999999895,timeout,,,0.485,,0.485,,,6,,,,,,,18,,,,,0.53,false,147583,147581.68,145598.48,145599,145598.82,147598.34,,118,
timeout,canvas.Screen,0_5_9_3,2022-07-15T15:48:16.656Z,,,,,,9,NaN,skipped,,,0.485,,,,,,,,,,,,,,,,,0.53,false,147590,147581.68,,147589,,147598.34,,,
ITI,canvas.Screen,0_5_9_4,2022-07-15T15:48:17.149Z,,,,,,9,499.9800000000105,timeout,,,0.485,,,,,,,,,,,,,,,,,0.53,false,148083,148081.66,147581.68,147591,147598.34,148098.32,,,
trial,flow.Sequence,0_5_9,2022-07-15T15:48:17.150Z,,,,,,9,4150.080000000016,completion,,,0.485,,,,,,,,,,,,,,,,,0.53,false,148084,148081.66,143914.9,143923,143931.58,148098.32,,,
fixation,canvas.Screen,0_5_10_0,2022-07-15T15:48:17.649Z,,,,,,6,500.03999999997905,timeout,,,0.515,,,,,,,,,,,,,,,,,0.485,false,148583,148581.7,148081.66,148085,148098.32,148598.36,,,
stimulus,canvas.Screen,0_5_10_1,2022-07-15T15:48:18.488Z,,,,,,6,813.640000000014,response,,0.515,0.515,,,https://raw.githubusercontent.com/carero2/loss-perception/main/png/0.515blue1yellowb%3D1w%3D100v%3D25.png,https://raw.githubusercontent.com/carero2/loss-perception/main/png/0.485blue1yellowb%3D1w%3D100v%3D25.png,,,,,,,,,true,f,keypress(f),0.485,0.485,false,149421,149412,148581.7,148584,148598.36,149433.88,,,
choice,canvas.Screen,0_5_10_2,2022-07-15T15:48:20.483Z,,,,0.515,,6,1997.8800000000047,timeout,,,0.515,,0.485,,,3,,,,,,,21,,,,,0.485,false,151417,151415.08,149433.32,149433,149433.88,151431.76,,121,
timeout,canvas.Screen,0_5_10_3,2022-07-15T15:48:20.489Z,,,,,,6,NaN,skipped,,,0.515,,,,,,,,,,,,,,,,,0.485,false,151422,151415.08,,151422,,151431.76,,,
ITI,canvas.Screen,0_5_10_4,2022-07-15T15:48:20.981Z,,,,,,6,499.88000000000466,timeout,,,0.515,,,,,,,,,,,,,,,,,0.485,false,151916,151914.98,151415.08,151424,151431.76,151931.64,,,
trial,flow.Sequence,0_5_10,2022-07-15T15:48:20.982Z,,,,,,6,3816.6600000000035,completion,,,0.515,,,,,,,,,,,,,,,,,0.485,false,151916,151914.98,148081.66,148084,148098.32,151931.64,,,
fixation,canvas.Screen,0_5_11_0,2022-07-15T15:48:21.482Z,,,,,,12,500.0199999999895,timeout,,,0.53,,,,,,,,,,,,,,,,,0.47,true,152416,152415,151914.98,151917,151931.64,152431.66,,,
stimulus,canvas.Screen,0_5_11_1,2022-07-15T15:48:22.236Z,,,,,,12,729.3399999999965,response,,0.47,0.53,,,https://raw.githubusercontent.com/carero2/loss-perception/main/png/0.47blue1yellowb%3D1w%3D100v%3D23.png,https://raw.githubusercontent.com/carero2/loss-perception/main/png/0.53blue1yellowb%3D1w%3D100v%3D23.png,,,,,,,,,true,j,keypress(j),0.53,0.47,true,153170,153161,152415,152416,152431.66,153181.22,,,
choice,canvas.Screen,0_5_11_2,2022-07-15T15:48:24.232Z,,,,0.53,,12,2000.6199999999953,timeout,,,0.53,,0.47,,,6,,,,,,,27,,,,,0.47,true,155166,155165.16,153180.68,153180,153181.22,155181.84,,127,
timeout,canvas.Screen,0_5_11_3,2022-07-15T15:48:24.238Z,,,,,,12,NaN,skipped,,,0.53,,,,,,,,,,,,,,,,,0.47,true,155172,155165.16,,155172,,155181.84,,,
ITI,canvas.Screen,0_5_11_4,2022-07-15T15:48:24.733Z,,,,,,12,500,timeout,,,0.53,,,,,,,,,,,,,,,,,0.47,true,155667,155665.16,155165.16,155172,155181.84,155681.84,,,
trial,flow.Sequence,0_5_11,2022-07-15T15:48:24.734Z,,,,,,12,3733.5199999999895,completion,,,0.53,,,,,,,,,,,,,,,,,0.47,true,155667,155665.16,151914.98,151916,151931.64,155681.84,,,
fixation,canvas.Screen,0_5_12_0,2022-07-15T15:48:25.232Z,,,,,,12,500,timeout,,,0.53,,,,,,,,,,,,,,,,,0.47,false,156166,156165.18,155665.16,155668,155681.84,156181.84,,,
stimulus,canvas.Screen,0_5_12_1,2022-07-15T15:48:25.867Z,,,,,,12,605.1600000000035,response,,0.53,0.53,,,https://raw.githubusercontent.com/carero2/loss-perception/main/png/0.53blue1yellowb%3D1w%3D100v%3D31.png,https://raw.githubusercontent.com/carero2/loss-perception/main/png/0.47blue1yellowb%3D1w%3D100v%3D31.png,,,,,,,,,true,f,keypress(f),0.47,0.47,false,156801,156787,156165.18,156166,156181.84,156815.5,,,
choice,canvas.Screen,0_5_12_2,2022-07-15T15:48:27.866Z,,,,0.53,,12,1999.7200000000012,timeout,,,0.53,,0.47,,,6,,,,,,,33,,,,,0.47,false,158800,158798.56,156814.84,156815,156815.5,158815.22,,133,
timeout,canvas.Screen,0_5_12_3,2022-07-15T15:48:27.871Z,,,,,,12,NaN,skipped,,,0.53,,,,,,,,,,,,,,,,,0.47,false,158805,158798.56,,158805,,158815.22,,,
ITI,canvas.Screen,0_5_12_4,2022-07-15T15:48:28.365Z,,,,,,12,500.0199999999895,timeout,,,0.53,,,,,,,,,,,,,,,,,0.47,false,159299,159298.56,158798.56,158805,158815.22,159315.24,,,
trial,flow.Sequence,0_5_12,2022-07-15T15:48:28.367Z,,,,,,12,3616.720000000001,completion,,,0.53,,,,,,,,,,,,,,,,,0.47,false,159300,159298.56,155665.16,155668,155681.84,159315.24,,,
fixation,canvas.Screen,0_5_13_0,2022-07-15T15:48:28.866Z,,,,,,9,500,timeout,,,0.485,,,,,,,,,,,,,,,,,0.53,true,159800,159798.58,159298.56,159301,159315.24,159815.24,,,
stimulus,canvas.Screen,0_5_13_1,2022-07-15T15:48:29.453Z,,,,,,9,563.7600000000093,response,,0.53,0.485,,,https://raw.githubusercontent.com/carero2/loss-perception/main/png/0.53blue1yellowb%3D1w%3D100v%3D90.png,https://raw.githubusercontent.com/carero2/loss-perception/main/png/0.485blue1yellowb%3D1w%3D100v%3D90.png,,,,,,,,,true,f,keypress(f),0.485,0.53,true,160388,160379,159798.58,159800,159815.24,160397.6,,,
choice,canvas.Screen,0_5_13_2,2022-07-15T15:48:31.449Z,,,,0.53,,9,2001.0400000000081,timeout,,,0.485,,0.485,,,6,,,,,,,39,,,,,0.53,true,162383,162381.98,160397.08,160397,160397.6,162398.64,,139,
timeout,canvas.Screen,0_5_13_3,2022-07-15T15:48:31.454Z,,,,,,9,NaN,skipped,,,0.485,,,,,,,,,,,,,,,,,0.53,true,162387,162381.98,,162387,,162398.64,,,
ITI,canvas.Screen,0_5_13_4,2022-07-15T15:48:31.950Z,,,,,,9,500.0199999999895,timeout,,,0.485,,,,,,,,,,,,,,,,,0.53,true,162883,162882,162381.98,162387,162398.64,162898.66,,,
trial,flow.Sequence,0_5_13,2022-07-15T15:48:31.950Z,,,,,,9,3566.7600000000093,completion,,,0.485,,,,,,,,,,,,,,,,,0.53,true,162884,162882,159298.56,159301,159315.24,162898.66,,,
fixation,canvas.Screen,0_5_14_0,2022-07-15T15:48:32.449Z,,,,,,6,500,timeout,,,0.485,,,,,,,,,,,,,,,,,0.455,false,163383,163381.98,162882,162884,162898.66,163398.66,,,
stimulus,canvas.Screen,0_5_14_1,2022-07-15T15:48:33.072Z,,,,,,6,591.3399999999965,response,,0.485,0.485,,,https://raw.githubusercontent.com/carero2/loss-perception/main/png/0.485blue1yellowb%3D1w%3D100v%3D12.png,https://raw.githubusercontent.com/carero2/loss-perception/main/png/0.455blue1yellowb%3D1w%3D100v%3D12.png,,,,,,,,,true,f,keypress(f),0.455,0.455,false,164006,163990,163381.98,163384,163398.66,164016.88,,,
choice,canvas.Screen,0_5_14_2,2022-07-15T15:48:35.066Z,,,,0.485,,6,1998.5,timeout,,,0.485,,0.455,,,-3,,,,,,,36,,,,,0.455,false,165999,165998.7,164016.32,164016,164016.88,166015.38,,136,
timeout,canvas.Screen,0_5_14_3,2022-07-15T15:48:35.070Z,,,,,,6,NaN,skipped,,,0.485,,,,,,,,,,,,,,,,,0.455,false,166004,165998.7,,166004,,166015.38,,,
ITI,canvas.Screen,0_5_14_4,2022-07-15T15:48:35.566Z,,,,,,6,500.0199999999895,timeout,,,0.485,,,,,,,,,,,,,,,,,0.455,false,166500,166498.74,165998.7,166004,166015.38,166515.4,,,
trial,flow.Sequence,0_5_14,2022-07-15T15:48:35.566Z,,,,,,6,3600.079999999987,completion,,,0.485,,,,,,,,,,,,,,,,,0.455,false,166501,166498.74,162882,162884,162898.66,166515.4,,,
fixation,canvas.Screen,0_5_15_0,2022-07-15T15:48:36.066Z,,,,,,6,499.95999999999185,timeout,,,0.545,,,,,,,,,,,,,,,,,0.515,false,166999,166998.7,166498.74,166501,166515.4,167015.36,,,
stimulus,canvas.Screen,0_5_15_1,2022-07-15T15:48:36.796Z,,,,,,6,691.640000000014,response,,0.545,0.545,,,https://raw.githubusercontent.com/carero2/loss-perception/main/png/0.545blue1yellowb%3D1w%3D100v%3D92.png,https://raw.githubusercontent.com/carero2/loss-perception/main/png/0.515blue1yellowb%3D1w%3D100v%3D92.png,,,,,,,,,true,f,keypress(f),0.515,0.515,false,167729,167707,166998.7,167000,167015.36,167735.54,,,
choice,canvas.Screen,0_5_15_2,2022-07-15T15:48:38.783Z,,,,0.545,,6,1996.6000000000058,timeout,,,0.545,,0.515,,,9,,,,,,,45,,,,,0.515,false,169716,169715.48,167735.22,167735,167735.54,169732.14,,145,
timeout,canvas.Screen,0_5_15_3,2022-07-15T15:48:38.788Z,,,,,,6,NaN,skipped,,,0.545,,,,,,,,,,,,,,,,,0.515,false,169722,169715.48,,169721,,169732.14,,,
ITI,canvas.Screen,0_5_15_4,2022-07-15T15:48:39.282Z,,,,,,6,500.0199999999895,timeout,,,0.545,,,,,,,,,,,,,,,,,0.515,false,170217,170215.48,169715.48,169722,169732.14,170232.16,,,
trial,flow.Sequence,0_5_15,2022-07-15T15:48:39.283Z,,,,,,6,3700.0800000000163,completion,,,0.545,,,,,,,,,,,,,,,,,0.515,false,170218,170215.48,166498.74,166501,166515.4,170232.16,,,
fixation,canvas.Screen,0_5_16_0,2022-07-15T15:48:39.783Z,,,,,,18,500,timeout,,,0.545,,,,,,,,,,,,,,,,,0.455,false,170716,170715.5,170215.48,170218,170232.16,170732.16,,,
stimulus,canvas.Screen,0_5_16_1,2022-07-15T15:48:40.365Z,,,,,,18,554.8399999999965,response,,0.545,0.545,,,https://raw.githubusercontent.com/carero2/loss-perception/main/png/0.545blue1yellowb%3D1w%3D100v%3D35.png,https://raw.githubusercontent.com/carero2/loss-perception/main/png/0.455blue1yellowb%3D1w%3D100v%3D35.png,,,,,,,,,true,f,keypress(f),0.455,0.455,false,171299,171287,170715.5,170717,170732.16,171309.42,,,
choice,canvas.Screen,0_5_16_2,2022-07-15T15:48:42.369Z,,,,0.545,,18,2006.1199999999953,timeout,,,0.545,,0.455,,,9,,,,,,,54,,,,,0.455,false,173303,173298.88,171308.9,171309,171309.42,173315.54,,154,
timeout,canvas.Screen,0_5_16_3,2022-07-15T15:48:42.382Z,,,,,,18,NaN,skipped,,,0.545,,,,,,,,,,,,,,,,,0.455,false,173316,173298.88,,173315,,173315.54,,,
ITI,canvas.Screen,0_5_16_4,2022-07-15T15:48:42.867Z,,,,,,18,500,timeout,,,0.545,,,,,,,,,,,,,,,,,0.455,false,173800,173798.88,173298.88,173317,173315.54,173815.54,,,
trial,flow.Sequence,0_5_16,2022-07-15T15:48:42.868Z,,,,,,18,3566.720000000001,completion,,,0.545,,,,,,,,,,,,,,,,,0.455,false,173802,173798.88,170215.48,170218,170232.16,173815.54,,,
fixation,canvas.Screen,0_5_17_0,2022-07-15T15:48:43.366Z,,,,,,6,499.88000000000466,timeout,,,0.515,,,,,,,,,,,,,,,,,0.485,false,174301,174298.76,173798.88,173803,173815.54,174315.42,,,
stimulus,canvas.Screen,0_5_17_1,2022-07-15T15:48:44.089Z,,,,,,6,689.5799999999872,response,,0.515,0.515,,,https://raw.githubusercontent.com/carero2/loss-perception/main/png/0.515blue1yellowb%3D1w%3D100v%3D46.png,https://raw.githubusercontent.com/carero2/loss-perception/main/png/0.485blue1yellowb%3D1w%3D100v%3D46.png,,,,,,,,,true,f,keypress(f),0.485,0.485,false,175023,175005,174298.76,174301,174315.42,175032.02,,,
choice,canvas.Screen,0_5_17_2,2022-07-15T15:48:46.084Z,,,,0.515,,6,2000.2400000000198,timeout,,,0.515,,0.485,,,3,,,,,,,57,,,,,0.485,false,177017,177015.6,175031.78,175032,175032.02,177032.26,,157,
timeout,canvas.Screen,0_5_17_3,2022-07-15T15:48:46.089Z,,,,,,6,NaN,skipped,,,0.515,,,,,,,,,,,,,,,,,0.485,false,177023,177015.6,,177022,,177032.26,,,
ITI,canvas.Screen,0_5_17_4,2022-07-15T15:48:46.583Z,,,,,,6,500.03999999997905,timeout,,,0.515,,,,,,,,,,,,,,,,,0.485,false,177517,177515.64,177015.6,177023,177032.26,177532.3,,,
trial,flow.Sequence,0_5_17,2022-07-15T15:48:46.584Z,,,,,,6,3700.100000000006,completion,,,0.515,,,,,,,,,,,,,,,,,0.485,false,177518,177515.64,173798.88,173803,173815.54,177532.3,,,
fixation,canvas.Screen,0_5_18_0,2022-07-15T15:48:47.083Z,,,,,,12,499.9800000000105,timeout,,,0.53,,,,,,,,,,,,,,,,,0.47,true,178017,178015.62,177515.64,177519,177532.3,178032.28,,,
stimulus,canvas.Screen,0_5_18_1,2022-07-15T15:48:47.758Z,,,,,,12,643.7200000000012,response,,0.47,0.53,,,https://raw.githubusercontent.com/carero2/loss-perception/main/png/0.47blue1yellowb%3D1w%3D100v%3D31.png,https://raw.githubusercontent.com/carero2/loss-perception/main/png/0.53blue1yellowb%3D1w%3D100v%3D31.png,,,,,,,,,true,j,keypress(j),0.53,0.47,true,178692,178676,178015.62,178018,178032.28,178704.24,,,
choice,canvas.Screen,0_5_18_2,2022-07-15T15:48:49.749Z,,,,0.53,,12,1994.8000000000175,timeout,,,0.53,,0.47,,,6,,,,,,,63,,,,,0.47,true,180684,180682.38,178703.68,178704,178704.24,180699.04,,163,
timeout,canvas.Screen,0_5_18_3,2022-07-15T15:48:49.755Z,,,,,,12,NaN,skipped,,,0.53,,,,,,,,,,,,,,,,,0.47,true,180689,180682.38,,180688,,180699.04,,,
ITI,canvas.Screen,0_5_18_4,2022-07-15T15:48:50.249Z,,,,,,12,500,timeout,,,0.53,,,,,,,,,,,,,,,,,0.47,true,181183,181182.38,180682.38,180690,180699.04,181199.04,,,
trial,flow.Sequence,0_5_18,2022-07-15T15:48:50.250Z,,,,,,12,3650.0800000000163,completion,,,0.53,,,,,,,,,,,,,,,,,0.47,true,181184,181182.38,177515.64,177519,177532.3,181199.04,,,
fixation,canvas.Screen,0_5_19_0,2022-07-15T15:48:50.750Z,,,,,,6,499.9799999999814,timeout,,,0.515,,,,,,,,,,,,,,,,,0.485,false,181683,181682.36,181182.38,181184,181199.04,181699.02,,,
stimulus,canvas.Screen,0_5_19_1,2022-07-15T15:48:51.559Z,,,,,,6,773.9800000000105,response,,0.515,0.515,,,https://raw.githubusercontent.com/carero2/loss-perception/main/png/0.515blue1yellowb%3D1w%3D100v%3D94.png,https://raw.githubusercontent.com/carero2/loss-perception/main/png/0.485blue1yellowb%3D1w%3D100v%3D94.png,,,,,,,,,true,f,keypress(f),0.485,0.485,false,182492,182473,181682.36,181684,181699.02,182505,,,
choice,canvas.Screen,0_5_19_2,2022-07-15T15:48:53.549Z,,,,0.515,,6,1994.1000000000058,timeout,,,0.515,,0.485,,,3,,,,,,,66,,,,,0.485,false,184484,184482.44,182504.46,182504,182505,184499.1,,166,
timeout,canvas.Screen,0_5_19_3,2022-07-15T15:48:53.556Z,,,,,,6,NaN,skipped,,,0.515,,,,,,,,,,,,,,,,,0.485,false,184489,184482.44,,184489,,184499.1,,,
ITI,canvas.Screen,0_5_19_4,2022-07-15T15:48:54.049Z,,,,,,6,499.9799999999814,timeout,,,0.515,,,,,,,,,,,,,,,,,0.485,false,184984,184982.4,184482.44,184490,184499.1,184999.08,,,
trial,flow.Sequence,0_5_19,2022-07-15T15:48:54.050Z,,,,,,6,3783.359999999986,completion,,,0.515,,,,,,,,,,,,,,,,,0.485,false,184985,184982.4,181182.38,181184,181199.04,184999.08,,,
fixation,canvas.Screen,0_5_20_0,2022-07-15T15:48:54.549Z,,,,,,9,500.04000000000815,timeout,,,0.485,,,,,,,,,,,,,,,,,0.53,true,185483,185482.44,184982.4,184985,184999.08,185499.12,,,
stimulus,canvas.Screen,0_5_20_1,2022-07-15T15:48:55.254Z,,,,,,9,676.8800000000047,response,,0.53,0.485,,,https://raw.githubusercontent.com/carero2/loss-perception/main/png/0.53blue1yellowb%3D1w%3D100v%3D58.png,https://raw.githubusercontent.com/carero2/loss-perception/main/png/0.485blue1yellowb%3D1w%3D100v%3D58.png,,,,,,,,,true,f,keypress(f),0.485,0.53,true,186189,186176,185482.44,185483,185499.12,186200.92,,,
choice,canvas.Screen,0_5_20_2,2022-07-15T15:48:57.250Z,,,,0.53,,9,1998.2799999999988,timeout,,,0.485,,0.485,,,6,,,,,,,72,,,,,0.53,true,188184,188182.54,186200.36,186200,186200.92,188199.2,,172,
timeout,canvas.Screen,0_5_20_3,2022-07-15T15:48:57.255Z,,,,,,9,NaN,skipped,,,0.485,,,,,,,,,,,,,,,,,0.53,true,188188,188182.54,,188188,,188199.2,,,
ITI,canvas.Screen,0_5_20_4,2022-07-15T15:48:57.750Z,,,,,,9,500,timeout,,,0.485,,,,,,,,,,,,,,,,,0.53,true,188684,188682.52,188182.54,188189,188199.2,188699.2,,,
trial,flow.Sequence,0_5_20,2022-07-15T15:48:57.751Z,,,,,,9,3683.4400000000023,completion,,,0.485,,,,,,,,,,,,,,,,,0.53,true,188685,188682.52,184982.4,184985,184999.08,188699.2,,,
fixation,canvas.Screen,0_5_21_0,2022-07-15T15:48:58.250Z,,,,,,18,500,timeout,,,0.545,,,,,,,,,,,,,,,,,0.455,true,189183,189182.52,188682.52,188685,188699.2,189199.2,,,
stimulus,canvas.Screen,0_5_21_1,2022-07-15T15:48:58.844Z,,,,,,18,570.7999999999884,response,,0.455,0.545,,,https://raw.githubusercontent.com/carero2/loss-perception/main/png/0.455blue1yellowb%3D1w%3D100v%3D93.png,https://raw.githubusercontent.com/carero2/loss-perception/main/png/0.545blue1yellowb%3D1w%3D100v%3D93.png,,,,,,,,,true,j,keypress(j),0.545,0.455,true,189778,189770,189182.52,189184,189199.2,189787.12,,,
choice,canvas.Screen,0_5_21_2,2022-07-15T15:49:00.833Z,,,,0.545,,18,1995.4800000000105,timeout,,,0.545,,0.455,,,9,,,,,,,81,,,,,0.455,true,191767,191765.94,189786.58,189787,189787.12,191782.6,,181,
timeout,canvas.Screen,0_5_21_3,2022-07-15T15:49:00.839Z,,,,,,18,NaN,skipped,,,0.545,,,,,,,,,,,,,,,,,0.455,true,191773,191765.94,,191772,,191782.6,,,
ITI,canvas.Screen,0_5_21_4,2022-07-15T15:49:01.333Z,,,,,,18,500.0199999999895,timeout,,,0.545,,,,,,,,,,,,,,,,,0.455,true,192267,192265.96,191765.94,191773,191782.6,192282.62,,,
trial,flow.Sequence,0_5_21,2022-07-15T15:49:01.334Z,,,,,,18,3566.75999999998,completion,,,0.545,,,,,,,,,,,,,,,,,0.455,true,192268,192265.96,188682.52,188685,188699.2,192282.62,,,
fixation,canvas.Screen,0_5_22_0,2022-07-15T15:49:01.833Z,,,,,,6,500,timeout,,,0.545,,,,,,,,,,,,,,,,,0.515,true,192767,192765.94,192265.96,192268,192282.62,192782.62,,,
stimulus,canvas.Screen,0_5_22_1,2022-07-15T15:49:02.721Z,,,,,,6,862.3800000000047,response,,0.515,0.545,,,https://raw.githubusercontent.com/carero2/loss-perception/main/png/0.515blue1yellowb%3D1w%3D100v%3D32.png,https://raw.githubusercontent.com/carero2/loss-perception/main/png/0.545blue1yellowb%3D1w%3D100v%3D32.png,,,,,,,,,true,j,keypress(j),0.545,0.515,true,193654,193645,192765.94,192767,192782.62,193666.02,,,
choice,canvas.Screen,0_5_22_2,2022-07-15T15:49:04.716Z,,,,0.545,,6,1999.9800000000105,timeout,,,0.545,,0.515,,,9,,,,,,,90,,,,,0.515,true,195650,195649.34,193664.14,193664,193666.02,195666,,190,
timeout,canvas.Screen,0_5_22_3,2022-07-15T15:49:04.720Z,,,,,,6,NaN,skipped,,,0.545,,,,,,,,,,,,,,,,,0.515,true,195655,195649.34,,195654,,195666,,,
ITI,canvas.Screen,0_5_22_4,2022-07-15T15:49:05.217Z,,,,,,6,500,timeout,,,0.545,,,,,,,,,,,,,,,,,0.515,true,196151,196149.34,195649.34,195655,195666,196166,,,
trial,flow.Sequence,0_5_22,2022-07-15T15:49:05.217Z,,,,,,6,3866.720000000001,completion,,,0.545,,,,,,,,,,,,,,,,,0.515,true,196151,196149.34,192265.96,192268,192282.62,196166,,,
fixation,canvas.Screen,0_5_23_0,2022-07-15T15:49:05.717Z,,,,,,6,500.04000000000815,timeout,,,0.485,,,,,,,,,,,,,,,,,0.455,false,196650,196649.36,196149.34,196152,196166,196666.04,,,
stimulus,canvas.Screen,0_5_23_1,2022-07-15T15:49:06.296Z,,,,,,6,556.9599999999919,response,,0.485,0.485,,,https://raw.githubusercontent.com/carero2/loss-perception/main/png/0.485blue1yellowb%3D1w%3D100v%3D99.png,https://raw.githubusercontent.com/carero2/loss-perception/main/png/0.455blue1yellowb%3D1w%3D100v%3D99.png,,,,,,,,,true,f,keypress(f),0.455,0.455,false,197230,197223,196649.36,196651,196666.04,197238.6,,,
choice,canvas.Screen,0_5_23_2,2022-07-15T15:49:08.283Z,,,,0.485,,6,1994.1399999999849,timeout,,,0.485,,0.455,,,-3,,,,,,,87,,,,,0.455,false,199217,199216.08,197238.12,197238,197238.6,199232.74,,187,
timeout,canvas.Screen,0_5_23_3,2022-07-15T15:49:08.288Z,,,,,,6,NaN,skipped,,,0.485,,,,,,,,,,,,,,,,,0.455,false,199222,199216.08,,199222,,199232.74,,,
ITI,canvas.Screen,0_5_23_4,2022-07-15T15:49:08.783Z,,,,,,6,500.0200000000186,timeout,,,0.485,,,,,,,,,,,,,,,,,0.455,false,199717,199716.1,199216.08,199222,199232.74,199732.76,,,
trial,flow.Sequence,0_5_23,2022-07-15T15:49:08.784Z,,,,,,6,3550.100000000006,completion,,,0.485,,,,,,,,,,,,,,,,,0.455,false,199717,199716.1,196149.34,196152,196166,199732.76,,,
pratice,flow.Loop,0_5,2022-07-15T15:49:08.785Z,,,,,,,95351.26000000001,completion,,,,,,,,,,,,,,,,,,,,,,199718,199716.1,104364.32,104364,104364.84,199732.76,,,
show amount,html.Screen,0_6,2022-07-15T15:49:18.581Z,,,,,,,9772.23999999999,response,,,,,,,,,,,,,,,,,Continue,click #Continue,,,,209516,209505,199716.1,199722,199732.76,209516.14,,,
first block,canvas.Screen,0_7,2022-07-15T15:49:32.929Z,,,,,,,14331.859999999986,response,,,,,,,,,,,,,,,,,space,keypress(Space),,,,223863,223848,209515.06,209516,209516.14,223866.64,,,
fixation,canvas.Screen,0_8_0_0,2022-07-15T15:49:33.417Z,,,,,,4,760.5599999999977,timeout,,,0.53,,,,,,,,,,,,,,,,,0.51,false,224351,224349.92,223864.3,223865,223866.64,224627.2,,,
stimulus,canvas.Screen,0_8_0_1,2022-07-15T15:49:34.477Z,,,,,,4,767.7999999999884,response,,0.53,0.53,,,https://raw.githubusercontent.com/carero2/loss-perception/main/png/0.53blue1yellowb%3D1w%3D100v%3D20.png,https://raw.githubusercontent.com/carero2/loss-perception/main/png/0.51blue1yellowb%3D1w%3D100v%3D20.png,,,,,,,,,true,f,keypress(f),0.51,0.51,false,225410,225395,224349.92,224627,224627.2,225418.58,,,
choice,canvas.Screen,0_8_0_2,2022-07-15T15:49:35.467Z,,,,0.53,,4,998.0800000000163,timeout,,,0.53,,0.51,,,6,6,,,,,,,,,,,0.51,false,226402,226400,225417.96,225418,225418.58,226416.66,106,,
ITI,canvas.Screen,0_8_0_3,2022-07-15T15:49:35.970Z,,,2421,,,4,499.9800000000105,timeout,,,0.53,,,,,,,,,,,,,,,,,0.51,false,226903,226899.98,226400,226402,226416.66,226916.64,,,
trial,flow.Sequence,0_8_0,2022-07-15T15:49:35.974Z,,,,,,4,3033.3399999999965,completion,,,0.53,,,,,,,,,,,,,,,,,0.51,false,226908,226899.98,223864.3,223864,223866.64,226916.64,,,
fixation,canvas.Screen,0_8_1_0,2022-07-15T15:49:36.467Z,,,,,,6,707.6199999999953,timeout,,,0.515,,,,,,,,,,,,,,,,,0.485,true,227402,227400.02,226899.98,226909,226916.64,227624.26,,,
stimulus,canvas.Screen,0_8_1_1,2022-07-15T15:49:37.537Z,,,,,,6,833.7399999999907,response,,0.485,0.515,,,https://raw.githubusercontent.com/carero2/loss-perception/main/png/0.485blue1yellowb%3D1w%3D100v%3D40.png,https://raw.githubusercontent.com/carero2/loss-perception/main/png/0.515blue1yellowb%3D1w%3D100v%3D40.png,,,,,,,,,true,j,keypress(j),0.515,0.485,true,228472,228458,227400.02,227625,227624.26,228485.12,,,
choice,canvas.Screen,0_8_1_2,2022-07-15T15:49:38.534Z,,,,0.515,,6,998.2799999999988,timeout,,,0.515,,0.485,,,3,9,,,,,,,,,,,0.485,true,229468,229466.72,228484.62,228485,228485.12,229483.4,109,,
ITI,canvas.Screen,0_8_1_3,2022-07-15T15:49:39.034Z,,,2174,,,6,499.9800000000105,timeout,,,0.515,,,,,,,,,,,,,,,,,0.485,true,229968,229966.72,229466.72,229469,229483.4,229983.38,,,
trial,flow.Sequence,0_8_1,2022-07-15T15:49:39.035Z,,,,,,6,3050.079999999987,completion,,,0.515,,,,,,,,,,,,,,,,,0.485,true,229969,229966.72,226899.98,226909,226916.64,229983.38,,,
fixation,canvas.Screen,0_8_2_0,2022-07-15T15:49:39.534Z,,,,,,6,694.1399999999849,timeout,,,0.545,,,,,,,,,,,,,,,,,0.515,false,230468,230466.76,229966.72,229970,229983.38,230677.52,,,
stimulus,canvas.Screen,0_8_2_1,2022-07-15T15:49:40.528Z,,,,,,6,780.4800000000105,response,,0.545,0.545,,,https://raw.githubusercontent.com/carero2/loss-perception/main/png/0.545blue1yellowb%3D1w%3D100v%3D10.png,https://raw.githubusercontent.com/carero2/loss-perception/main/png/0.515blue1yellowb%3D1w%3D100v%3D10.png,,,,,,,,,true,f,keypress(f),0.515,0.515,false,231462,231458,230466.76,230678,230677.52,231474.76,,,
choice,canvas.Screen,0_8_2_2,2022-07-15T15:49:41.517Z,,,,0.545,,6,992.0199999999895,timeout,,,0.545,,0.515,,,9,18,,,,,,,,,,,0.515,false,232451,232450.1,231474.3,231475,231474.76,232466.78,118,,
ITI,canvas.Screen,0_8_2_3,2022-07-15T15:49:42.018Z,,,2882,,,6,500.0199999999895,timeout,,,0.545,,,,,,,,,,,,,,,,,0.515,false,232952,232950.14,232450.1,232452,232466.78,232966.8,,,
trial,flow.Sequence,0_8_2,2022-07-15T15:49:42.019Z,,,,,,6,2966.7600000000093,completion,,,0.545,,,,,,,,,,,,,,,,,0.515,false,232953,232950.14,229966.72,229970,229983.38,232966.8,,,
fixation,canvas.Screen,0_8_3_0,2022-07-15T15:49:42.517Z,,,,,,4,704.5,timeout,,,0.51,,,,,,,,,,,,,,,,,0.49,true,233452,233450.12,232950.14,232954,232966.8,233671.3,,,
stimulus,canvas.Screen,0_8_3_1,2022-07-15T15:49:43.419Z,,,,,,4,660.7000000000116,response,,0.49,0.51,,,https://raw.githubusercontent.com/carero2/loss-perception/main/png/0.49blue1yellowb%3D1w%3D100v%3D66.png,https://raw.githubusercontent.com/carero2/loss-perception/main/png/0.51blue1yellowb%3D1w%3D100v%3D66.png,,,,,,,,,true,j,keypress(j),0.51,0.49,true,234352,234332,233450.12,233671,233671.3,234366.86,,,
choice,canvas.Screen,0_8_3_2,2022-07-15T15:49:44.417Z,,,,0.51,,4,1000,timeout,,,0.51,,0.49,,,2,20,,,,,,,,,,,0.49,true,235351,235350.2,234363.46,234363,234366.86,235366.86,120,,
ITI,canvas.Screen,0_8_3_3,2022-07-15T15:49:44.917Z,,,2829,,,4,500,timeout,,,0.51,,,,,,,,,,,,,,,,,0.49,true,235851,235850.2,235350.2,235351,235366.86,235866.86,,,
trial,flow.Sequence,0_8_3,2022-07-15T15:49:44.918Z,,,,,,4,2883.4000000000233,completion,,,0.51,,,,,,,,,,,,,,,,,0.49,true,235852,235850.2,232950.14,232954,232966.8,235866.86,,,
fixation,canvas.Screen,0_8_4_0,2022-07-15T15:49:45.417Z,,,,,,2,694.0600000000268,timeout,,,0.515,,,,,,,,,,,,,,,,,0.505,false,236352,236350.2,235850.2,235853,235866.86,236560.92,,,
stimulus,canvas.Screen,0_8_4_1,2022-07-15T15:49:46.534Z,,,,,,2,896.0799999999872,response,,0.515,0.515,,,https://raw.githubusercontent.com/carero2/loss-perception/main/png/0.515blue1yellowb%3D1w%3D100v%3D10.png,https://raw.githubusercontent.com/carero2/loss-perception/main/png/0.505blue1yellowb%3D1w%3D100v%3D10.png,,,,,,,,,true,f,keypress(f),0.505,0.505,false,237467,237457,236350.2,236561,236560.92,237477.48,,,
choice,canvas.Screen,0_8_4_2,2022-07-15T15:49:47.533Z,,,,0.515,,2,1006.039999999979,timeout,,,0.515,,0.505,,,3,23,,,,,,,,,,,0.505,false,238467,238466.86,237477,237476,237477.48,238483.52,123,,
ITI,canvas.Screen,0_8_4_3,2022-07-15T15:49:48.034Z,,,2292,,,2,500.0599999999977,timeout,,,0.515,,,,,,,,,,,,,,,,,0.505,false,238968,238966.92,238466.86,238467,238483.52,238983.58,,,
trial,flow.Sequence,0_8_4,2022-07-15T15:49:48.035Z,,,,,,2,3100.060000000027,completion,,,0.515,,,,,,,,,,,,,,,,,0.505,false,238969,238966.92,235850.2,235852,235866.86,238983.58,,,
fixation,canvas.Screen,0_8_5_0,2022-07-15T15:49:48.534Z,,,,,,6,679.9000000000233,timeout,,,0.485,,,,,,,,,,,,,,,,,0.455,false,239468,239466.94,238966.92,238970,238983.58,239663.48,,,
stimulus,canvas.Screen,0_8_5_1,2022-07-15T15:49:49.763Z,,,,,,6,1013.5199999999895,response,,0.485,0.485,,,https://raw.githubusercontent.com/carero2/loss-perception/main/png/0.485blue1yellowb%3D1w%3D100v%3D55.png,https://raw.githubusercontent.com/carero2/loss-perception/main/png/0.455blue1yellowb%3D1w%3D100v%3D55.png,,,,,,,,,true,f,keypress(f),0.455,0.455,false,240697,240677,239466.94,239664,239663.48,240705.58,,,
choice,canvas.Screen,0_8_5_2,2022-07-15T15:49:50.750Z,,,,0.485,,6,994.6200000000244,timeout,,,0.485,,0.455,,,-3,20,,,,,,,,,,,0.455,false,241684,241683.54,240705.1,240705,240705.58,241700.2,120,,
ITI,canvas.Screen,0_8_5_3,2022-07-15T15:49:51.251Z,,,2687,,,6,500.11999999999534,timeout,,,0.485,,,,,,,,,,,,,,,,,0.455,false,242185,242183.64,241683.54,241686,241700.2,242200.32,,,
trial,flow.Sequence,0_8_5,2022-07-15T15:49:51.252Z,,,,,,6,3200.060000000027,completion,,,0.485,,,,,,,,,,,,,,,,,0.455,false,242185,242183.64,238966.92,238969,238983.58,242200.32,,,
fixation,canvas.Screen,0_8_6_0,2022-07-15T15:49:51.751Z,,,,,,4,702.2599999999802,timeout,,,0.49,,,,,,,,,,,,,,,,,0.47,false,242684,242683.68,242183.64,242186,242200.32,242902.58,,,
stimulus,canvas.Screen,0_8_6_1,2022-07-15T15:49:52.866Z,,,,,,4,883.4200000000128,response,,0.49,0.49,,,https://raw.githubusercontent.com/carero2/loss-perception/main/png/0.49blue1yellowb%3D1w%3D100v%3D38.png,https://raw.githubusercontent.com/carero2/loss-perception/main/png/0.47blue1yellowb%3D1w%3D100v%3D38.png,,,,,,,,,true,f,keypress(f),0.47,0.47,false,243801,243786,242683.68,242902,242902.58,243809.3,,,
choice,canvas.Screen,0_8_6_2,2022-07-15T15:49:53.867Z,,,,0.49,,4,1007.7600000000093,timeout,,,0.49,,0.47,,,-2,18,,,,,,,,,,,0.47,false,244801,244800.4,243808.82,243809,243809.3,244817.06,118,,
ITI,canvas.Screen,0_8_6_3,2022-07-15T15:49:54.367Z,,,2607,,,4,500,timeout,,,0.49,,,,,,,,,,,,,,,,,0.47,false,245302,245300.4,244800.4,244802,244817.06,245317.06,,,
trial,flow.Sequence,0_8_6,2022-07-15T15:49:54.368Z,,,,,,4,3100.079999999987,completion,,,0.49,,,,,,,,,,,,,,,,,0.47,false,245302,245300.4,242183.64,242186,242200.32,245317.06,,,
fixation,canvas.Screen,0_8_7_0,2022-07-15T15:49:54.867Z,,,,,,2,774.9599999999919,timeout,,,0.495,,,,,,,,,,,,,,,,,0.485,false,245802,245800.4,245300.4,245303,245317.06,246092.02,,,
stimulus,canvas.Screen,0_8_7_1,2022-07-15T15:49:55.850Z,,,,,,2,677.9800000000105,response,,0.495,0.495,,,https://raw.githubusercontent.com/carero2/loss-perception/main/png/0.495blue1yellowb%3D1w%3D100v%3D24.png,https://raw.githubusercontent.com/carero2/loss-perception/main/png/0.485blue1yellowb%3D1w%3D100v%3D24.png,,,,,,,,,true,j,keypress(j),0.485,0.485,false,246784,246770,245800.4,246092,246092.02,246792.78,,,
choice,canvas.Screen,0_8_7_2,2022-07-15T15:49:56.851Z,,,,0.485,,2,1007.6600000000035,timeout,,,0.495,,0.495,,,-3,15,,,,,,,,,,,0.485,false,247785,247783.78,246792.3,246792,246792.78,247800.44,115,,
ITI,canvas.Screen,0_8_7_3,2022-07-15T15:49:57.351Z,,,2576,,,2,500.0199999999895,timeout,,,0.495,,,,,,,,,,,,,,,,,0.485,false,248285,248283.8,247783.78,247786,247800.44,248300.46,,,
trial,flow.Sequence,0_8_7,2022-07-15T15:49:57.352Z,,,,,,2,2966.7399999999907,completion,,,0.495,,,,,,,,,,,,,,,,,0.485,false,248286,248283.8,245300.4,245302,245317.06,248300.46,,,
fixation,canvas.Screen,0_8_8_0,2022-07-15T15:49:57.851Z,,,,,,2,739.0599999999977,timeout,,,0.505,,,,,,,,,,,,,,,,,0.495,true,248785,248783.72,248283.8,248286,248300.46,249039.52,,,
stimulus,canvas.Screen,0_8_8_1,2022-07-15T15:49:58.979Z,,,,,,2,855.4800000000105,response,,0.495,0.505,,,https://raw.githubusercontent.com/carero2/loss-perception/main/png/0.495blue1yellowb%3D1w%3D100v%3D64.png,https://raw.githubusercontent.com/carero2/loss-perception/main/png/0.505blue1yellowb%3D1w%3D100v%3D64.png,,,,,,,,,true,j,keypress(j),0.505,0.495,true,249913,249895,248783.72,249040,249039.52,249921.26,,,
choice,canvas.Screen,0_8_8_2,2022-07-15T15:49:59.968Z,,,,0.505,,2,995.9199999999837,timeout,,,0.505,,0.495,,,1,16,,,,,,,,,,,0.495,true,250901,250900.52,249920.68,249920,249921.26,250917.18,116,,
ITI,canvas.Screen,0_8_8_3,2022-07-15T15:50:00.468Z,,,2330,,,2,500.0200000000186,timeout,,,0.505,,,,,,,,,,,,,,,,,0.495,true,251402,251400.52,250900.52,250903,250917.18,251417.2,,,
trial,flow.Sequence,0_8_8,2022-07-15T15:50:00.469Z,,,,,,2,3100.0599999999977,completion,,,0.505,,,,,,,,,,,,,,,,,0.495,true,251403,251400.52,248283.8,248286,248300.46,251417.2,,,
fixation,canvas.Screen,0_8_9_0,2022-07-15T15:50:00.967Z,,,,,,2,721.2200000000012,timeout,,,0.505,,,,,,,,,,,,,,,,,0.495,false,251902,251900.52,251400.52,251403,251417.2,252138.42,,,
stimulus,canvas.Screen,0_8_9_1,2022-07-15T15:50:02.133Z,,,,,,2,912.5799999999872,response,,0.505,0.505,,,https://raw.githubusercontent.com/carero2/loss-perception/main/png/0.505blue1yellowb%3D1w%3D100v%3D51.png,https://raw.githubusercontent.com/carero2/loss-perception/main/png/0.495blue1yellowb%3D1w%3D100v%3D51.png,,,,,,,,,true,f,keypress(f),0.495,0.495,false,253066,253051,251900.52,252138,252138.42,253075.66,,,
choice,canvas.Screen,0_8_9_2,2022-07-15T15:50:03.135Z,,,,0.505,,2,1008.2600000000093,timeout,,,0.505,,0.495,,,1,17,,,,,,,,,,,0.495,false,254069,254067.24,253075.16,253075,253075.66,254083.92,117,,
ITI,canvas.Screen,0_8_9_3,2022-07-15T15:50:03.634Z,,,2541,,,2,500,timeout,,,0.505,,,,,,,,,,,,,,,,,0.495,false,254568,254567.26,254067.24,254069,254083.92,254583.92,,,
trial,flow.Sequence,0_8_9,2022-07-15T15:50:03.635Z,,,,,,2,3150.0599999999977,completion,,,0.505,,,,,,,,,,,,,,,,,0.495,false,254569,254567.26,251400.52,251403,251417.2,254583.92,,,
fixation,canvas.Screen,0_8_10_0,2022-07-15T15:50:04.134Z,,,,,,2,707.9599999999919,timeout,,,0.515,,,,,,,,,,,,,,,,,0.505,true,255069,255067.26,254567.26,254569,254583.92,255291.88,,,
stimulus,canvas.Screen,0_8_10_1,2022-07-15T15:50:05.315Z,,,,,,2,947.1199999999953,response,,0.505,0.515,,,https://raw.githubusercontent.com/carero2/loss-perception/main/png/0.505blue1yellowb%3D1w%3D100v%3D35.png,https://raw.githubusercontent.com/carero2/loss-perception/main/png/0.515blue1yellowb%3D1w%3D100v%3D35.png,,,,,,,,,true,j,keypress(j),0.515,0.505,true,256249,256239,255067.26,255292,255291.88,256257.32,,,
choice,canvas.Screen,0_8_10_2,2022-07-15T15:50:06.301Z,,,,0.515,,2,993.320000000007,timeout,,,0.515,,0.505,,,3,20,,,,,,,,,,,0.505,true,257235,257233.98,256256.8,256256,256257.32,257250.64,120,,
ITI,canvas.Screen,0_8_10_3,2022-07-15T15:50:06.801Z,,,2536,,,2,499.9799999999814,timeout,,,0.515,,,,,,,,,,,,,,,,,0.505,true,257735,257733.96,257233.98,257236,257250.64,257750.62,,,
trial,flow.Sequence,0_8_10,2022-07-15T15:50:06.802Z,,,,,,2,3150.039999999979,completion,,,0.515,,,,,,,,,,,,,,,,,0.505,true,257736,257733.96,254567.26,254569,254583.92,257750.62,,,
fixation,canvas.Screen,0_8_11_0,2022-07-15T15:50:07.301Z,,,,,,4,712.3800000000047,timeout,,,0.49,,,,,,,,,,,,,,,,,0.47,true,258235,258234,257733.96,257737,257750.62,258463,,,
stimulus,canvas.Screen,0_8_11_1,2022-07-15T15:50:08.470Z,,,,,,4,917,response,,0.47,0.49,,,https://raw.githubusercontent.com/carero2/loss-perception/main/png/0.47blue1yellowb%3D1w%3D100v%3D50.png,https://raw.githubusercontent.com/carero2/loss-perception/main/png/0.49blue1yellowb%3D1w%3D100v%3D50.png,,,,,,,,,true,j,keypress(j),0.49,0.47,true,259404,259380,258234,258462,258463,259412.76,,,
choice,canvas.Screen,0_8_11_2,2022-07-15T15:50:09.467Z,,,,0.49,,4,1004.6199999999953,timeout,,,0.49,,0.47,,,-2,18,,,,,,,,,,,0.47,true,260402,260400.7,259412.28,259413,259412.76,260417.38,118,,
ITI,canvas.Screen,0_8_11_3,2022-07-15T15:50:09.967Z,,,2230,,,4,499.9799999999814,timeout,,,0.49,,,,,,,,,,,,,,,,,0.47,true,260902,260900.72,260400.7,260403,260417.38,260917.36,,,
trial,flow.Sequence,0_8_11,2022-07-15T15:50:09.968Z,,,,,,4,3150.100000000006,completion,,,0.49,,,,,,,,,,,,,,,,,0.47,true,260903,260900.72,257733.96,257737,257750.62,260917.36,,,
fixation,canvas.Screen,0_8_12_0,2022-07-15T15:50:10.468Z,,,,,,6,710.7000000000116,timeout,,,0.545,,,,,,,,,,,,,,,,,0.515,true,261402,261400.74,260900.72,260903,260917.36,261628.06,,,
stimulus,canvas.Screen,0_8_12_1,2022-07-15T15:50:11.380Z,,,,,,6,657.9400000000023,response,,0.515,0.545,,,https://raw.githubusercontent.com/carero2/loss-perception/main/png/0.515blue1yellowb%3D1w%3D100v%3D67.png,https://raw.githubusercontent.com/carero2/loss-perception/main/png/0.545blue1yellowb%3D1w%3D100v%3D67.png,,,,,,,,,true,j,keypress(j),0.545,0.515,true,262313,262286,261400.74,261628,261628.06,262322.68,,,
choice,canvas.Screen,0_8_12_2,2022-07-15T15:50:12.371Z,,,,0.545,,6,994.7600000000093,timeout,,,0.545,,0.515,,,9,27,,,,,,,,,,,0.515,true,263304,263300.78,262322.18,262322,262322.68,263317.44,127,,
ITI,canvas.Screen,0_8_12_3,2022-07-15T15:50:12.869Z,,,2531,,,6,499.9799999999814,timeout,,,0.545,,,,,,,,,,,,,,,,,0.515,true,263803,263800.76,263300.78,263307,263317.44,263817.42,,,
trial,flow.Sequence,0_8_12,2022-07-15T15:50:12.870Z,,,,,,6,2883.4000000000233,completion,,,0.545,,,,,,,,,,,,,,,,,0.515,true,263804,263800.76,260900.72,260903,260917.36,263817.42,,,
fixation,canvas.Screen,0_8_13_0,2022-07-15T15:50:13.368Z,,,,,,6,720.179999999993,timeout,,,0.515,,,,,,,,,,,,,,,,,0.485,false,264302,264300.8,263800.76,263806,263817.42,264537.6,,,
stimulus,canvas.Screen,0_8_13_1,2022-07-15T15:50:14.721Z,,,,,,6,1107.4000000000233,response,,0.515,0.515,,,https://raw.githubusercontent.com/carero2/loss-perception/main/png/0.515blue1yellowb%3D1w%3D100v%3D33.png,https://raw.githubusercontent.com/carero2/loss-perception/main/png/0.485blue1yellowb%3D1w%3D100v%3D33.png,,,,,,,,,true,f,keypress(f),0.485,0.485,false,265655,265645,264300.8,264537,264537.6,265667.06,,,
choice,canvas.Screen,0_8_13_2,2022-07-15T15:50:15.718Z,,,,0.515,,6,1000.460000000021,timeout,,,0.515,,0.485,,,3,30,,,,,,,,,,,0.485,false,266652,266650.84,265666.56,265667,265667.06,266667.52,130,,
ITI,canvas.Screen,0_8_13_3,2022-07-15T15:50:16.218Z,,,2156,,,6,500,timeout,,,0.515,,,,,,,,,,,,,,,,,0.485,false,267152,267150.86,266650.84,266654,266667.52,267167.52,,,
trial,flow.Sequence,0_8_13,2022-07-15T15:50:16.219Z,,,,,,6,3333.4400000000023,completion,,,0.515,,,,,,,,,,,,,,,,,0.485,false,267153,267150.86,263800.76,263805,263817.42,267167.52,,,
fixation,canvas.Screen,0_8_14_0,2022-07-15T15:50:16.718Z,,,,,,2,712.4799999999814,timeout,,,0.495,,,,,,,,,,,,,,,,,0.485,true,267652,267650.86,267150.86,267154,267167.52,267880,,,
stimulus,canvas.Screen,0_8_14_1,2022-07-15T15:50:17.737Z,,,,,,2,781,response,,0.485,0.495,,,https://raw.githubusercontent.com/carero2/loss-perception/main/png/0.485blue1yellowb%3D1w%3D100v%3D1.png,https://raw.githubusercontent.com/carero2/loss-perception/main/png/0.495blue1yellowb%3D1w%3D100v%3D1.png,,,,,,,,,true,j,keypress(j),0.495,0.485,true,268671,268661,267650.86,267879,267880,268681.18,,,
choice,canvas.Screen,0_8_14_2,2022-07-15T15:50:18.736Z,,,,0.495,,2,1003.039999999979,timeout,,,0.495,,0.485,,,-1,29,,,,,,,,,,,0.485,true,269669,269667.56,268680.64,268680,268681.18,269684.22,129,,
ITI,canvas.Screen,0_8_14_3,2022-07-15T15:50:19.235Z,,,2642,,,2,500.0200000000186,timeout,,,0.495,,,,,,,,,,,,,,,,,0.485,true,270169,270167.58,269667.56,269670,269684.22,270184.24,,,
trial,flow.Sequence,0_8_14,2022-07-15T15:50:19.236Z,,,,,,2,3000.0599999999977,completion,,,0.495,,,,,,,,,,,,,,,,,0.485,true,270170,270167.58,267150.86,267154,267167.52,270184.24,,,
fixation,canvas.Screen,0_8_15_0,2022-07-15T15:50:19.734Z,,,,,,4,760.8800000000047,timeout,,,0.51,,,,,,,,,,,,,,,,,0.49,true,270669,270667.5,270167.58,270171,270184.24,270945.12,,,
stimulus,canvas.Screen,0_8_15_1,2022-07-15T15:50:20.753Z,,,,,,4,730.8800000000047,response,,0.49,0.51,,,https://raw.githubusercontent.com/carero2/loss-perception/main/png/0.49blue1yellowb%3D1w%3D100v%3D6.png,https://raw.githubusercontent.com/carero2/loss-perception/main/png/0.51blue1yellowb%3D1w%3D100v%3D6.png,,,,,,,,,true,j,keypress(j),0.51,0.49,true,271687,271676,270667.5,270945,270945.12,271700.96,,,
choice,canvas.Screen,0_8_15_2,2022-07-15T15:50:21.751Z,,,,0.51,,4,1000.0199999999604,timeout,,,0.51,,0.49,,,2,31,,,,,,,,,,,0.49,true,272685,272684.3,271697.76,271698,271700.96,272700.98,131,,
ITI,canvas.Screen,0_8_15_3,2022-07-15T15:50:22.251Z,,,2472,,,4,500,timeout,,,0.51,,,,,,,,,,,,,,,,,0.49,true,273186,273184.32,272684.3,272686,272700.98,273200.98,,,
trial,flow.Sequence,0_8_15,2022-07-15T15:50:22.252Z,,,,,,4,3000.0800000000163,completion,,,0.51,,,,,,,,,,,,,,,,,0.49,true,273186,273184.32,270167.58,270170,270184.24,273200.98,,,
fixation,canvas.Screen,0_8_16_0,2022-07-15T15:50:22.751Z,,,,,,6,758.5400000000373,timeout,,,0.485,,,,,,,,,,,,,,,,,0.455,false,273685,273684.32,273184.32,273187,273200.98,273959.52,,,
stimulus,canvas.Screen,0_8_16_1,2022-07-15T15:50:23.998Z,,,,,,6,967.4799999999814,response,,0.485,0.485,,,https://raw.githubusercontent.com/carero2/loss-perception/main/png/0.485blue1yellowb%3D1w%3D100v%3D40.png,https://raw.githubusercontent.com/carero2/loss-perception/main/png/0.455blue1yellowb%3D1w%3D100v%3D40.png,,,,,,,,,true,f,keypress(f),0.455,0.455,false,274931,274927,273684.32,273960,273959.52,274941.96,,,
choice,canvas.Screen,0_8_16_2,2022-07-15T15:50:24.985Z,,,,0.485,,6,992.3999999999651,timeout,,,0.485,,0.455,,,-3,28,,,,,,,,,,,0.455,false,275918,275917.7,274941.44,274942,274941.96,275934.36,128,,
ITI,canvas.Screen,0_8_16_3,2022-07-15T15:50:25.485Z,,,2789,,,6,500.0200000000186,timeout,,,0.485,,,,,,,,,,,,,,,,,0.455,false,276419,276417.72,275917.7,275919,275934.36,276434.38,,,
trial,flow.Sequence,0_8_16,2022-07-15T15:50:25.486Z,,,,,,6,3216.7399999999907,completion,,,0.485,,,,,,,,,,,,,,,,,0.455,false,276420,276417.72,273184.32,273187,273200.98,276434.38,,,
fixation,canvas.Screen,0_8_17_0,2022-07-15T15:50:25.985Z,,,,,,4,781.179999999993,timeout,,,0.53,,,,,,,,,,,,,,,,,0.51,false,276919,276917.62,276417.72,276420,276434.38,277215.56,,,
stimulus,canvas.Screen,0_8_17_1,2022-07-15T15:50:27.196Z,,,,,,4,899.4400000000023,response,,0.53,0.53,,,https://raw.githubusercontent.com/carero2/loss-perception/main/png/0.53blue1yellowb%3D1w%3D100v%3D81.png,https://raw.githubusercontent.com/carero2/loss-perception/main/png/0.51blue1yellowb%3D1w%3D100v%3D81.png,,,,,,,,,true,f,keypress(f),0.51,0.51,false,278130,278115,276917.62,277216,277215.56,278138.24,,,
choice,canvas.Screen,0_8_17_2,2022-07-15T15:50:28.185Z,,,,0.53,,4,996.2000000000116,timeout,,,0.53,,0.51,,,6,34,,,,,,,,,,,0.51,false,279119,279117.78,278137.66,278137,278138.24,279134.44,134,,
ITI,canvas.Screen,0_8_17_3,2022-07-15T15:50:28.685Z,,,2696,,,4,500,timeout,,,0.53,,,,,,,,,,,,,,,,,0.51,false,279619,279617.78,279117.78,279120,279134.44,279634.44,,,
trial,flow.Sequence,0_8_17,2022-07-15T15:50:28.686Z,,,,,,4,3183.4000000000233,completion,,,0.53,,,,,,,,,,,,,,,,,0.51,false,279619,279617.78,276417.72,276420,276434.38,279634.44,,,
fixation,canvas.Screen,0_8_18_0,2022-07-15T15:50:29.185Z,,,,,,2,696.7799999999697,timeout,,,0.515,,,,,,,,,,,,,,,,,0.505,false,280119,280117.8,279617.78,279620,279634.44,280331.22,,,
stimulus,canvas.Screen,0_8_18_1,2022-07-15T15:50:30.601Z,,,,,,2,1189.780000000028,response,,0.515,0.515,,,https://raw.githubusercontent.com/carero2/loss-perception/main/png/0.515blue1yellowb%3D1w%3D100v%3D22.png,https://raw.githubusercontent.com/carero2/loss-perception/main/png/0.505blue1yellowb%3D1w%3D100v%3D22.png,,,,,,,,,true,j,keypress(j),0.505,0.505,false,281534,281521,280117.8,280331,280331.22,281544.16,,,
choice,canvas.Screen,0_8_18_2,2022-07-15T15:50:31.602Z,,,,0.505,,2,1007.0200000000186,timeout,,,0.515,,0.515,,,1,35,,,,,,,,,,,0.505,false,282536,282534.52,281543.62,281544,281544.16,282551.18,135,,
ITI,canvas.Screen,0_8_18_3,2022-07-15T15:50:32.101Z,,,2694,,,2,499.9799999999814,timeout,,,0.515,,,,,,,,,,,,,,,,,0.505,false,283035,283034.5,282534.52,282536,282551.18,283051.16,,,
trial,flow.Sequence,0_8_18,2022-07-15T15:50:32.102Z,,,,,,2,3400.0599999999977,completion,,,0.515,,,,,,,,,,,,,,,,,0.505,false,283036,283034.5,279617.78,279620,279634.44,283051.16,,,
fixation,canvas.Screen,0_8_19_0,2022-07-15T15:50:32.602Z,,,,,,6,722.2000000000116,timeout,,,0.545,,,,,,,,,,,,,,,,,0.515,false,283536,283534.52,283034.5,283036,283051.16,283773.36,,,
stimulus,canvas.Screen,0_8_19_1,2022-07-15T15:50:33.801Z,,,,,,6,950.640000000014,response,,0.545,0.545,,,https://raw.githubusercontent.com/carero2/loss-perception/main/png/0.545blue1yellowb%3D1w%3D100v%3D78.png,https://raw.githubusercontent.com/carero2/loss-perception/main/png/0.515blue1yellowb%3D1w%3D100v%3D78.png,,,,,,,,,true,f,keypress(f),0.515,0.515,false,284735,284724,283534.52,283773,283773.36,284744.82,,,
choice,canvas.Screen,0_8_19_2,2022-07-15T15:50:34.801Z,,,,0.545,,6,1006.4199999999837,timeout,,,0.545,,0.515,,,9,44,,,,,,,,,,,0.515,false,285736,285734.58,284744.3,284744,284744.82,285751.24,144,,
ITI,canvas.Screen,0_8_19_3,2022-07-15T15:50:35.302Z,,,2966,,,6,500,timeout,,,0.545,,,,,,,,,,,,,,,,,0.515,false,286236,286234.56,285734.58,285736,285751.24,286251.24,,,
trial,flow.Sequence,0_8_19,2022-07-15T15:50:35.303Z,,,,,,6,3183.4000000000233,completion,,,0.545,,,,,,,,,,,,,,,,,0.515,false,286237,286234.56,283034.5,283036,283051.16,286251.24,,,
fixation,canvas.Screen,0_8_20_0,2022-07-15T15:50:35.802Z,,,,,,6,706.4400000000023,timeout,,,0.515,,,,,,,,,,,,,,,,,0.485,true,286736,286734.56,286234.56,286238,286251.24,286957.68,,,
stimulus,canvas.Screen,0_8_20_1,2022-07-15T15:50:36.871Z,,,,,,6,828.320000000007,response,,0.485,0.515,,,https://raw.githubusercontent.com/carero2/loss-perception/main/png/0.485blue1yellowb%3D1w%3D100v%3D74.png,https://raw.githubusercontent.com/carero2/loss-perception/main/png/0.515blue1yellowb%3D1w%3D100v%3D74.png,,,,,,,,,true,j,keypress(j),0.515,0.485,true,287805,287786,286734.56,286958,286957.68,287813.76,,,
choice,canvas.Screen,0_8_20_2,2022-07-15T15:50:37.868Z,,,,0.515,,6,1004.2000000000116,timeout,,,0.515,,0.485,,,3,47,,,,,,,,,,,0.485,true,288802,288801.3,287813.24,287813,287813.76,288817.96,147,,
ITI,canvas.Screen,0_8_20_3,2022-07-15T15:50:38.368Z,,,2207,,,6,499.9400000000023,timeout,,,0.515,,,,,,,,,,,,,,,,,0.485,true,289302,289301.24,288801.3,288803,288817.96,289317.9,,,
trial,flow.Sequence,0_8_20,2022-07-15T15:50:38.369Z,,,,,,6,3050,completion,,,0.515,,,,,,,,,,,,,,,,,0.485,true,289303,289301.24,286234.56,286237,286251.24,289317.9,,,
fixation,canvas.Screen,0_8_21_0,2022-07-15T15:50:38.868Z,,,,,,6,703.2599999999511,timeout,,,0.485,,,,,,,,,,,,,,,,,0.455,false,289802,289801.3,289301.24,289304,289317.9,290021.16,,,
stimulus,canvas.Screen,0_8_21_1,2022-07-15T15:50:40.087Z,,,,,,6,982.8400000000256,response,,0.485,0.485,,,https://raw.githubusercontent.com/carero2/loss-perception/main/png/0.485blue1yellowb%3D1w%3D100v%3D67.png,https://raw.githubusercontent.com/carero2/loss-perception/main/png/0.455blue1yellowb%3D1w%3D100v%3D67.png,,,,,,,,,true,f,keypress(f),0.455,0.455,false,291021,291004,289801.3,290021,290021.16,291029.38,,,
choice,canvas.Screen,0_8_21_2,2022-07-15T15:50:41.085Z,,,,0.485,,6,1005.2999999999884,timeout,,,0.485,,0.455,,,-3,44,,,,,,,,,,,0.455,false,292019,292018.02,291028.82,291029,291029.38,292034.68,144,,
ITI,canvas.Screen,0_8_21_3,2022-07-15T15:50:41.585Z,,,2482,,,6,500.0200000000186,timeout,,,0.485,,,,,,,,,,,,,,,,,0.455,false,292519,292518.02,292018.02,292020,292034.68,292534.7,,,
trial,flow.Sequence,0_8_21,2022-07-15T15:50:41.586Z,,,,,,6,3200.1199999999953,completion,,,0.485,,,,,,,,,,,,,,,,,0.455,false,292519,292518.02,289301.24,289303,289317.9,292534.7,,,
fixation,canvas.Screen,0_8_22_0,2022-07-15T15:50:42.085Z,,,,,,2,711.859999999986,timeout,,,0.505,,,,,,,,,,,,,,,,,0.495,true,293019,293018.06,292518.02,292521,292534.7,293246.56,,,
stimulus,canvas.Screen,0_8_22_1,2022-07-15T15:50:43.115Z,,,,,,2,790.4400000000023,response,,0.495,0.505,,,https://raw.githubusercontent.com/carero2/loss-perception/main/png/0.495blue1yellowb%3D1w%3D100v%3D42.png,https://raw.githubusercontent.com/carero2/loss-perception/main/png/0.505blue1yellowb%3D1w%3D100v%3D42.png,,,,,,,,,true,j,keypress(j),0.505,0.495,true,294048,294037,293018.06,293246,293246.56,294056.74,,,
choice,canvas.Screen,0_8_22_2,2022-07-15T15:50:44.102Z,,,,0.505,,2,994.7000000000116,timeout,,,0.505,,0.495,,,1,45,,,,,,,,,,,0.495,true,295036,295034.78,294056.24,294056,294056.74,295051.44,145,,
ITI,canvas.Screen,0_8_22_3,2022-07-15T15:50:44.604Z,,,2650,,,2,500,timeout,,,0.505,,,,,,,,,,,,,,,,,0.495,true,295538,295534.78,295034.78,295036,295051.44,295551.44,,,
trial,flow.Sequence,0_8_22,2022-07-15T15:50:44.608Z,,,,,,2,3000.0800000000163,completion,,,0.505,,,,,,,,,,,,,,,,,0.495,true,295542,295534.78,292518.02,292521,292534.7,295551.44,,,
fixation,canvas.Screen,0_8_23_0,2022-07-15T15:50:45.102Z,,,,,,4,720.7999999999884,timeout,,,0.49,,,,,,,,,,,,,,,,,0.47,false,296036,296034.7,295534.78,295544,295551.44,296272.24,,,
stimulus,canvas.Screen,0_8_23_1,2022-07-15T15:50:46.368Z,,,,,,4,1013.7600000000093,response,,0.49,0.49,,,https://raw.githubusercontent.com/carero2/loss-perception/main/png/0.49blue1yellowb%3D1w%3D100v%3D60.png,https://raw.githubusercontent.com/carero2/loss-perception/main/png/0.47blue1yellowb%3D1w%3D100v%3D60.png,,,,,,,,,true,f,keypress(f),0.47,0.47,false,297302,297286,296034.7,296272,296272.24,297318.2,,,
choice,canvas.Screen,0_8_23_2,2022-07-15T15:50:47.369Z,,,,0.49,,4,999.9799999999814,timeout,,,0.49,,0.47,,,-2,43,,,,,,,,,,,0.47,false,298302,298301.5,297315.54,297316,297318.2,298318.18,143,,
ITI,canvas.Screen,0_8_23_3,2022-07-15T15:50:47.869Z,,,2740,,,4,500,timeout,,,0.49,,,,,,,,,,,,,,,,,0.47,false,298803,298801.52,298301.5,298304,298318.18,298818.18,,,
trial,flow.Sequence,0_8_23,2022-07-15T15:50:47.871Z,,,,,,4,3250.0800000000163,completion,,,0.49,,,,,,,,,,,,,,,,,0.47,false,298804,298801.52,295534.78,295543,295551.44,298818.18,,,
fixation,canvas.Screen,0_8_24_0,2022-07-15T15:50:48.369Z,,,,,,4,716.179999999993,timeout,,,0.53,,,,,,,,,,,,,,,,,0.51,true,299303,299301.52,298801.52,298805,298818.18,299534.36,,,
stimulus,canvas.Screen,0_8_24_1,2022-07-15T15:50:49.472Z,,,,,,4,860.640000000014,response,,0.51,0.53,,,https://raw.githubusercontent.com/carero2/loss-perception/main/png/0.51blue1yellowb%3D1w%3D100v%3D67.png,https://raw.githubusercontent.com/carero2/loss-perception/main/png/0.53blue1yellowb%3D1w%3D100v%3D67.png,,,,,,,,,true,j,keypress(j),0.53,0.51,true,300407,300395,299301.52,299534,299534.36,300418.28,,,
choice,canvas.Screen,0_8_24_2,2022-07-15T15:50:50.469Z,,,,0.53,,4,999.9599999999627,timeout,,,0.53,,0.51,,,6,49,,,,,,,,,,,0.51,true,301403,301401.56,300416.22,300416,300418.28,301418.24,149,,
ITI,canvas.Screen,0_8_24_3,2022-07-15T15:50:50.969Z,,,2569,,,4,499.9799999999814,timeout,,,0.53,,,,,,,,,,,,,,,,,0.51,true,301904,301901.56,301401.56,301404,301418.24,301918.22,,,
trial,flow.Sequence,0_8_24,2022-07-15T15:50:50.971Z,,,,,,4,3083.3800000000047,completion,,,0.53,,,,,,,,,,,,,,,,,0.51,true,301905,301901.56,298801.52,298805,298818.18,301918.22,,,
fixation,canvas.Screen,0_8_25_0,2022-07-15T15:50:51.469Z,,,,,,4,689.4400000000023,timeout,,,0.51,,,,,,,,,,,,,,,,,0.49,true,302403,302401.58,301901.56,301906,301918.22,302607.66,,,
stimulus,canvas.Screen,0_8_25_1,2022-07-15T15:50:52.558Z,,,,,,4,866.3400000000256,response,,0.49,0.51,,,https://raw.githubusercontent.com/carero2/loss-perception/main/png/0.49blue1yellowb%3D1w%3D100v%3D52.png,https://raw.githubusercontent.com/carero2/loss-perception/main/png/0.51blue1yellowb%3D1w%3D100v%3D52.png,,,,,,,,,true,j,keypress(j),0.51,0.49,true,303491,303474,302401.58,302608,302607.66,303504.5,,,
choice,canvas.Screen,0_8_25_2,2022-07-15T15:50:53.552Z,,,,0.51,,4,997.140000000014,timeout,,,0.51,,0.49,,,2,51,,,,,,,,,,,0.49,true,304486,304484.96,303503.92,303503,303504.5,304501.64,151,,
ITI,canvas.Screen,0_8_25_3,2022-07-15T15:50:54.052Z,,,2165,,,4,500,timeout,,,0.51,,,,,,,,,,,,,,,,,0.49,true,304986,304984.98,304484.96,304487,304501.64,305001.64,,,
trial,flow.Sequence,0_8_25,2022-07-15T15:50:54.053Z,,,,,,4,3066.7600000000093,completion,,,0.51,,,,,,,,,,,,,,,,,0.49,true,304987,304984.98,301901.56,301905,301918.22,305001.64,,,
fixation,canvas.Screen,0_8_26_0,2022-07-15T15:50:54.552Z,,,,,,2,702.0199999999604,timeout,,,0.495,,,,,,,,,,,,,,,,,0.485,false,305486,305484.98,304984.98,304987,305001.64,305703.66,,,
stimulus,canvas.Screen,0_8_26_1,2022-07-15T15:50:55.666Z,,,,,,2,878.3400000000256,response,,0.495,0.495,,,https://raw.githubusercontent.com/carero2/loss-perception/main/png/0.495blue1yellowb%3D1w%3D100v%3D52.png,https://raw.githubusercontent.com/carero2/loss-perception/main/png/0.485blue1yellowb%3D1w%3D100v%3D52.png,,,,,,,,,true,j,keypress(j),0.485,0.485,false,306599,306582,305484.98,305703,305703.66,306603.94,,,
choice,canvas.Screen,0_8_26_2,2022-07-15T15:50:56.652Z,,,,0.485,,2,997.7600000000093,timeout,,,0.495,,0.495,,,-3,48,,,,,,,,,,,0.485,false,307586,307585.04,306603.68,306603,306603.94,307601.7,148,,
ITI,canvas.Screen,0_8_26_3,2022-07-15T15:50:57.152Z,,,2759,,,2,499.9400000000023,timeout,,,0.495,,,,,,,,,,,,,,,,,0.485,false,308087,308084.98,307585.04,307586,307601.7,308101.64,,,
trial,flow.Sequence,0_8_26,2022-07-15T15:50:57.153Z,,,,,,2,3083.3399999999674,completion,,,0.495,,,,,,,,,,,,,,,,,0.485,false,308087,308084.98,304984.98,304987,305001.64,308101.64,,,
fixation,canvas.Screen,0_8_27_0,2022-07-15T15:50:57.652Z,,,,,,4,754.1199999999953,timeout,,,0.49,,,,,,,,,,,,,,,,,0.47,true,308587,308585.04,308084.98,308088,308101.64,308855.76,,,
stimulus,canvas.Screen,0_8_27_1,2022-07-15T15:50:58.620Z,,,,,,4,680.2399999999907,response,,0.47,0.49,,,https://raw.githubusercontent.com/carero2/loss-perception/main/png/0.47blue1yellowb%3D1w%3D100v%3D99.png,https://raw.githubusercontent.com/carero2/loss-perception/main/png/0.49blue1yellowb%3D1w%3D100v%3D99.png,,,,,,,,,true,j,keypress(j),0.49,0.47,true,309553,309536,308585.04,308855,308855.76,309561.84,,,
choice,canvas.Screen,0_8_27_2,2022-07-15T15:50:59.619Z,,,,0.49,,4,1006.5799999999581,timeout,,,0.49,,0.47,,,-2,46,,,,,,,,,,,0.47,true,310553,310551.76,309561.38,309562,309561.84,310568.42,146,,
ITI,canvas.Screen,0_8_27_3,2022-07-15T15:51:00.118Z,,,2311,,,4,499.9000000000233,timeout,,,0.49,,,,,,,,,,,,,,,,,0.47,true,311052,311051.66,310551.76,310554,310568.42,311068.32,,,
trial,flow.Sequence,0_8_27,2022-07-15T15:51:00.118Z,,,,,,4,2950.0199999999604,completion,,,0.49,,,,,,,,,,,,,,,,,0.47,true,311052,311051.66,308084.98,308088,308101.64,311068.32,,,
fixation,canvas.Screen,0_8_28_0,2022-07-15T15:51:00.619Z,,,,,,6,520.5,timeout,,,0.515,,,,,,,,,,,,,,,,,0.485,true,311553,311551.78,311051.66,311052,311068.32,311588.82,,,
stimulus,canvas.Screen,0_8_28_1,2022-07-15T15:51:01.388Z,,,,,,6,728.179999999993,response,,0.485,0.515,,,https://raw.githubusercontent.com/carero2/loss-perception/main/png/0.485blue1yellowb%3D1w%3D100v%3D46.png,https://raw.githubusercontent.com/carero2/loss-perception/main/png/0.515blue1yellowb%3D1w%3D100v%3D46.png,,,,,,,,,true,j,keypress(j),0.515,0.485,true,312322,312317,311551.78,311589,311588.82,312331.5,,,
choice,canvas.Screen,0_8_28_2,2022-07-15T15:51:02.386Z,,,,0.515,,6,1003.6599999999744,timeout,,,0.515,,0.485,,,3,49,,,,,,,,,,,0.485,true,313319,313318.48,312331,312331,312331.5,313335.16,149,,
ITI,canvas.Screen,0_8_28_3,2022-07-15T15:51:02.886Z,,,2990,,,6,500,timeout,,,0.515,,,,,,,,,,,,,,,,,0.485,true,313820,313818.5,313318.48,313320,313335.16,313835.16,,,
trial,flow.Sequence,0_8_28,2022-07-15T15:51:02.887Z,,,,,,6,2750.179999999993,completion,,,0.515,,,,,,,,,,,,,,,,,0.485,true,313820,313818.5,311051.66,311052,311068.32,313835.16,,,
fixation,canvas.Screen,0_8_29_0,2022-07-15T15:51:03.386Z,,,,,,4,726.1800000000512,timeout,,,0.53,,,,,,,,,,,,,,,,,0.51,true,314320,314318.34,313818.5,313821,313835.16,314561.34,,,
stimulus,canvas.Screen,0_8_29_1,2022-07-15T15:51:04.371Z,,,,,,4,724.6599999999744,response,,0.51,0.53,,,https://raw.githubusercontent.com/carero2/loss-perception/main/png/0.51blue1yellowb%3D1w%3D100v%3D37.png,https://raw.githubusercontent.com/carero2/loss-perception/main/png/0.53blue1yellowb%3D1w%3D100v%3D37.png,,,,,,,,,true,j,keypress(j),0.53,0.51,true,315304,315286,314318.34,314561,314561.34,315312.94,,,
choice,canvas.Screen,0_8_29_2,2022-07-15T15:51:05.369Z,,,,0.53,,4,1005.5999999999767,timeout,,,0.53,,0.51,,,6,55,,,,,,,,,,,0.51,true,316303,316301.88,315312.44,315312,315312.94,316318.54,155,,
ITI,canvas.Screen,0_8_29_3,2022-07-15T15:51:05.869Z,,,2950,,,4,500,timeout,,,0.53,,,,,,,,,,,,,,,,,0.51,true,316803,316801.88,316301.88,316303,316318.54,316818.54,,,
trial,flow.Sequence,0_8_29,2022-07-15T15:51:05.870Z,,,,,,4,2966.7200000000303,completion,,,0.53,,,,,,,,,,,,,,,,,0.51,true,316804,316801.88,313818.5,313820,313835.16,316818.54,,,
fixation,canvas.Screen,0_8_30_0,2022-07-15T15:51:06.369Z,,,,,,6,746.820000000007,timeout,,,0.545,,,,,,,,,,,,,,,,,0.515,true,317303,317301.9,316801.88,316804,316818.54,317565.36,,,
stimulus,canvas.Screen,0_8_30_1,2022-07-15T15:51:07.311Z,,,,,,6,674.640000000014,response,,0.515,0.545,,,https://raw.githubusercontent.com/carero2/loss-perception/main/png/0.515blue1yellowb%3D1w%3D100v%3D73.png,https://raw.githubusercontent.com/carero2/loss-perception/main/png/0.545blue1yellowb%3D1w%3D100v%3D73.png,,,,,,,,,true,j,keypress(j),0.545,0.515,true,318245,318240,317301.9,317565,317565.36,318254.7,,,
choice,canvas.Screen,0_8_30_2,2022-07-15T15:51:08.303Z,,,,0.545,,6,997.2399999999907,timeout,,,0.545,,0.515,,,9,64,,,,,,,,,,,0.515,true,319237,319235.26,318254.04,318254,318254.7,319251.94,164,,
ITI,canvas.Screen,0_8_30_3,2022-07-15T15:51:08.802Z,,,2697,,,6,500,timeout,,,0.545,,,,,,,,,,,,,,,,,0.515,true,319737,319735.28,319235.26,319237,319251.94,319751.94,,,
trial,flow.Sequence,0_8_30,2022-07-15T15:51:08.803Z,,,,,,6,2916.740000000049,completion,,,0.545,,,,,,,,,,,,,,,,,0.515,true,319738,319735.28,316801.88,316804,316818.54,319751.94,,,
fixation,canvas.Screen,0_8_31_0,2022-07-15T15:51:09.303Z,,,,,,2,718.9799999999814,timeout,,,0.515,,,,,,,,,,,,,,,,,0.505,true,320236,320235.3,319735.28,319738,319751.94,320470.92,,,
stimulus,canvas.Screen,0_8_31_1,2022-07-15T15:51:10.222Z,,,,,,2,674.0800000000163,response,,0.505,0.515,,,https://raw.githubusercontent.com/carero2/loss-perception/main/png/0.505blue1yellowb%3D1w%3D100v%3D79.png,https://raw.githubusercontent.com/carero2/loss-perception/main/png/0.515blue1yellowb%3D1w%3D100v%3D79.png,,,,,,,,,true,j,keypress(j),0.515,0.505,true,321155,321145,320235.3,320471,320470.92,321163.62,,,
choice,canvas.Screen,0_8_31_2,2022-07-15T15:51:11.219Z,,,,0.515,,2,1005.039999999979,timeout,,,0.515,,0.505,,,3,67,,,,,,,,,,,0.505,true,322153,322152,321163.18,321163,321163.62,322168.66,167,,
ITI,canvas.Screen,0_8_31_3,2022-07-15T15:51:11.719Z,,,2226,,,2,499.96000000002095,timeout,,,0.515,,,,,,,,,,,,,,,,,0.505,true,322653,322651.96,322152,322153,322168.66,322668.62,,,
trial,flow.Sequence,0_8_31,2022-07-15T15:51:11.719Z,,,,,,2,2900.0200000000186,completion,,,0.515,,,,,,,,,,,,,,,,,0.505,true,322654,322651.96,319735.28,319738,319751.94,322668.62,,,
fixation,canvas.Screen,0_8_32_0,2022-07-15T15:51:12.219Z,,,,,,2,690.9000000000233,timeout,,,0.505,,,,,,,,,,,,,,,,,0.495,false,323153,323152.02,322651.96,322655,322668.62,323359.52,,,
stimulus,canvas.Screen,0_8_32_1,2022-07-15T15:51:13.660Z,,,,,,2,1223.4799999999814,response,,0.505,0.505,,,https://raw.githubusercontent.com/carero2/loss-perception/main/png/0.505blue1yellowb%3D1w%3D100v%3D21.png,https://raw.githubusercontent.com/carero2/loss-perception/main/png/0.495blue1yellowb%3D1w%3D100v%3D21.png,,,,,,,,,true,f,keypress(f),0.495,0.495,false,324593,324583,323152.02,323359,323359.52,324601.96,,,
choice,canvas.Screen,0_8_32_2,2022-07-15T15:51:14.653Z,,,,0.505,,2,1006.0599999999977,timeout,,,0.505,,0.495,,,1,68,,,,,,,,,,,0.495,false,325587,325585.42,324601.4,324601,324601.96,325608.02,168,,
ITI,canvas.Screen,0_8_32_3,2022-07-15T15:51:15.152Z,,,2310,,,2,494.0599999999977,timeout,,,0.505,,,,,,,,,,,,,,,,,0.495,false,326086,326085.42,325585.42,325587,325608.02,326102.08,,,
trial,flow.Sequence,0_8_32,2022-07-15T15:51:15.153Z,,,,,,2,3416.7999999999884,completion,,,0.505,,,,,,,,,,,,,,,,,0.495,false,326087,326085.42,322651.96,322654,322668.62,326102.08,,,
fixation,canvas.Screen,0_8_33_0,2022-07-15T15:51:15.652Z,,,,,,4,705.7199999999721,timeout,,,0.51,,,,,,,,,,,,,,,,,0.49,false,326586,326585.4,326085.42,326087,326102.08,326807.8,,,
stimulus,canvas.Screen,0_8_33_1,2022-07-15T15:51:16.852Z,,,,,,4,962.2000000000116,response,,0.51,0.51,,,https://raw.githubusercontent.com/carero2/loss-perception/main/png/0.51blue1yellowb%3D1w%3D100v%3D48.png,https://raw.githubusercontent.com/carero2/loss-perception/main/png/0.49blue1yellowb%3D1w%3D100v%3D48.png,,,,,,,,,true,f,keypress(f),0.49,0.49,false,327785,327770,326585.4,326808,326807.8,327805.84,,,
choice,canvas.Screen,0_8_33_2,2022-07-15T15:51:17.853Z,,,,0.51,,4,996.2799999999697,timeout,,,0.51,,0.49,,,2,70,,,,,,,,,,,0.49,false,328787,328785.44,327805.32,327805,327805.84,328802.12,170,,
ITI,canvas.Screen,0_8_33_3,2022-07-15T15:51:18.353Z,,,2084,,,4,500.0200000000186,timeout,,,0.51,,,,,,,,,,,,,,,,,0.49,false,329287,329285.48,328785.44,328788,328802.12,329302.14,,,
trial,flow.Sequence,0_8_33,2022-07-15T15:51:18.355Z,,,,,,4,3183.399999999965,completion,,,0.51,,,,,,,,,,,,,,,,,0.49,false,329289,329285.48,326085.42,326087,326102.08,329302.14,,,
fixation,canvas.Screen,0_8_34_0,2022-07-15T15:51:18.853Z,,,,,,6,760.0599999999977,timeout,,,0.485,,,,,,,,,,,,,,,,,0.455,false,329787,329785.5,329285.48,329291,329302.14,330062.2,,,
stimulus,canvas.Screen,0_8_34_1,2022-07-15T15:51:20.559Z,,,,,,6,1411.7999999999884,response,,0.485,0.485,,,https://raw.githubusercontent.com/carero2/loss-perception/main/png/0.485blue1yellowb%3D1w%3D100v%3D34.png,https://raw.githubusercontent.com/carero2/loss-perception/main/png/0.455blue1yellowb%3D1w%3D100v%3D34.png,,,,,,,,,true,f,keypress(f),0.455,0.455,false,331493,331474,329785.5,330062,330062.2,331503.68,,,
choice,canvas.Screen,0_8_34_2,2022-07-15T15:51:21.553Z,,,,0.485,,6,998.5200000000186,timeout,,,0.485,,0.455,,,-3,67,,,,,,,,,,,0.455,false,332487,332485.54,331503.14,331503,331503.68,332502.2,167,,
ITI,canvas.Screen,0_8_34_3,2022-07-15T15:51:22.053Z,,,2442,,,6,500,timeout,,,0.485,,,,,,,,,,,,,,,,,0.455,false,332987,332985.54,332485.54,332487,332502.2,333002.2,,,
trial,flow.Sequence,0_8_34,2022-07-15T15:51:22.055Z,,,,,,6,3683.399999999965,completion,,,0.485,,,,,,,,,,,,,,,,,0.455,false,332988,332985.54,329285.48,329290,329302.14,333002.2,,,
fixation,canvas.Screen,0_8_35_0,2022-07-15T15:51:22.553Z,,,,,,2,724.3399999999674,timeout,,,0.495,,,,,,,,,,,,,,,,,0.485,true,333487,333485.56,332985.54,332989,333002.2,333726.54,,,
stimulus,canvas.Screen,0_8_35_1,2022-07-15T15:51:23.675Z,,,,,,2,872.460000000021,response,,0.485,0.495,,,https://raw.githubusercontent.com/carero2/loss-perception/main/png/0.485blue1yellowb%3D1w%3D100v%3D98.png,https://raw.githubusercontent.com/carero2/loss-perception/main/png/0.495blue1yellowb%3D1w%3D100v%3D98.png,,,,,,,,,true,j,keypress(j),0.495,0.485,true,334609,334599,333485.56,333726,333726.54,334620.12,,,
choice,canvas.Screen,0_8_35_2,2022-07-15T15:51:24.670Z,,,,0.495,,2,998.7800000000279,timeout,,,0.495,,0.485,,,-1,66,,,,,,,,,,,0.485,true,335604,335602.24,334619.58,334620,334620.12,335618.9,166,,
ITI,canvas.Screen,0_8_35_3,2022-07-15T15:51:25.170Z,,,2993,,,2,500.03999999997905,timeout,,,0.495,,,,,,,,,,,,,,,,,0.485,true,336104,336102.28,335602.24,335605,335618.9,336118.94,,,
trial,flow.Sequence,0_8_35,2022-07-15T15:51:25.171Z,,,,,,2,3100.0800000000163,completion,,,0.495,,,,,,,,,,,,,,,,,0.485,true,336105,336102.28,332985.54,332989,333002.2,336118.94,,,
fixation,canvas.Screen,0_8_36_0,2022-07-15T15:51:25.670Z,,,,,,2,718.2000000000116,timeout,,,0.495,,,,,,,,,,,,,,,,,0.485,false,336604,336602.3,336102.28,336105,336118.94,336837.14,,,
stimulus,canvas.Screen,0_8_36_1,2022-07-15T15:51:27.022Z,,,,,,2,1104.859999999986,response,,0.495,0.495,,,https://raw.githubusercontent.com/carero2/loss-perception/main/png/0.495blue1yellowb%3D1w%3D100v%3D9.png,https://raw.githubusercontent.com/carero2/loss-perception/main/png/0.485blue1yellowb%3D1w%3D100v%3D9.png,,,,,,,,,true,f,keypress(f),0.485,0.485,false,337956,337942,336602.3,336837,336837.14,337969.18,,,
choice,canvas.Screen,0_8_36_2,2022-07-15T15:51:28.018Z,,,,0.495,,2,999.7200000000303,timeout,,,0.495,,0.485,,,-1,65,,,,,,,,,,,0.485,false,338952,338952.22,337966.22,337966,337969.18,338968.9,165,,
ITI,canvas.Screen,0_8_36_3,2022-07-15T15:51:28.520Z,,,2163,,,2,500.11999999999534,timeout,,,0.495,,,,,,,,,,,,,,,,,0.485,false,339454,339452.36,338952.22,338953,338968.9,339469.02,,,
trial,flow.Sequence,0_8_36,2022-07-15T15:51:28.520Z,,,,,,2,3333.4199999999837,completion,,,0.495,,,,,,,,,,,,,,,,,0.485,false,339455,339452.36,336102.28,336105,336118.94,339469.02,,,
fixation,canvas.Screen,0_8_37_0,2022-07-15T15:51:29.020Z,,,,,,6,744.0799999999581,timeout,,,0.515,,,,,,,,,,,,,,,,,0.485,false,339954,339952.3,339452.36,339455,339469.02,340213.1,,,
stimulus,canvas.Screen,0_8_37_1,2022-07-15T15:51:30.250Z,,,,,,6,948.9000000000233,response,,0.515,0.515,,,https://raw.githubusercontent.com/carero2/loss-perception/main/png/0.515blue1yellowb%3D1w%3D100v%3D5.png,https://raw.githubusercontent.com/carero2/loss-perception/main/png/0.485blue1yellowb%3D1w%3D100v%3D5.png,,,,,,,,,true,f,keypress(f),0.485,0.485,false,341184,341162,339952.3,340214,340213.1,341193.68,,,
choice,canvas.Screen,0_8_37_2,2022-07-15T15:51:31.236Z,,,,0.515,,6,992.0599999999977,timeout,,,0.515,,0.485,,,3,68,,,,,,,,,,,0.485,false,342170,342169.08,341193.18,341193,341193.68,342185.74,168,,
ITI,canvas.Screen,0_8_37_3,2022-07-15T15:51:31.736Z,,,2997,,,6,500,timeout,,,0.515,,,,,,,,,,,,,,,,,0.485,false,342670,342669.06,342169.08,342171,342185.74,342685.74,,,
trial,flow.Sequence,0_8_37,2022-07-15T15:51:31.737Z,,,,,,6,3200.039999999979,completion,,,0.515,,,,,,,,,,,,,,,,,0.485,false,342671,342669.06,339452.36,339455,339469.02,342685.74,,,
fixation,canvas.Screen,0_8_38_0,2022-07-15T15:51:32.236Z,,,,,,2,722.8400000000256,timeout,,,0.515,,,,,,,,,,,,,,,,,0.505,false,343170,343169.1,342669.06,342672,342685.74,343408.58,,,
stimulus,canvas.Screen,0_8_38_1,2022-07-15T15:51:33.343Z,,,,,,2,861.4199999999837,response,,0.515,0.515,,,https://raw.githubusercontent.com/carero2/loss-perception/main/png/0.515blue1yellowb%3D1w%3D100v%3D65.png,https://raw.githubusercontent.com/carero2/loss-perception/main/png/0.505blue1yellowb%3D1w%3D100v%3D65.png,,,,,,,,,true,j,keypress(j),0.505,0.505,false,344277,344270,343169.1,343409,343408.58,344286.36,,,
choice,canvas.Screen,0_8_38_2,2022-07-15T15:51:34.337Z,,,,0.505,,2,999.460000000021,timeout,,,0.515,,0.515,,,1,69,,,,,,,,,,,0.505,false,345270,345269.14,344285.84,344285,344286.36,345285.82,169,,
ITI,canvas.Screen,0_8_38_3,2022-07-15T15:51:34.837Z,,,2132,,,2,500,timeout,,,0.515,,,,,,,,,,,,,,,,,0.505,false,345770,345769.16,345269.14,345270,345285.82,345785.82,,,
trial,flow.Sequence,0_8_38,2022-07-15T15:51:34.837Z,,,,,,2,3083.4199999999837,completion,,,0.515,,,,,,,,,,,,,,,,,0.505,false,345771,345769.16,342669.06,342671,342685.74,345785.82,,,
fixation,canvas.Screen,0_8_39_0,2022-07-15T15:51:35.336Z,,,,,,4,731.859999999986,timeout,,,0.51,,,,,,,,,,,,,,,,,0.49,false,346270,346269.16,345769.16,345772,345785.82,346517.68,,,
stimulus,canvas.Screen,0_8_39_1,2022-07-15T15:51:36.751Z,,,,,,4,1144.320000000007,response,,0.51,0.51,,,https://raw.githubusercontent.com/carero2/loss-perception/main/png/0.51blue1yellowb%3D1w%3D100v%3D100.png,https://raw.githubusercontent.com/carero2/loss-perception/main/png/0.49blue1yellowb%3D1w%3D100v%3D100.png,,,,,,,,,true,f,keypress(f),0.49,0.49,false,347684,347662,346269.16,346517,346517.68,347693.16,,,
choice,canvas.Screen,0_8_39_2,2022-07-15T15:51:37.737Z,,,,0.51,,4,992.6200000000536,timeout,,,0.51,,0.49,,,2,71,,,,,,,,,,,0.49,false,348670,348669.12,347692.72,347693,347693.16,348685.78,171,,
ITI,canvas.Screen,0_8_39_3,2022-07-15T15:51:38.236Z,,,2360,,,4,500.0799999999581,timeout,,,0.51,,,,,,,,,,,,,,,,,0.49,false,349170,349169.2,348669.12,348671,348685.78,349185.86,,,
trial,flow.Sequence,0_8_39,2022-07-15T15:51:38.237Z,,,,,,4,3383.3800000000047,completion,,,0.51,,,,,,,,,,,,,,,,,0.49,false,349171,349169.2,345769.16,345771,345785.82,349185.86,,,
fixation,canvas.Screen,0_8_40_0,2022-07-15T15:51:38.736Z,,,,,,6,730.0800000000163,timeout,,,0.545,,,,,,,,,,,,,,,,,0.515,true,349670,349669.16,349169.2,349172,349185.86,349915.94,,,
stimulus,canvas.Screen,0_8_40_1,2022-07-15T15:51:39.670Z,,,,,,6,667.0599999999977,response,,0.515,0.545,,,https://raw.githubusercontent.com/carero2/loss-perception/main/png/0.515blue1yellowb%3D1w%3D100v%3D2.png,https://raw.githubusercontent.com/carero2/loss-perception/main/png/0.545blue1yellowb%3D1w%3D100v%3D2.png,,,,,,,,,true,j,keypress(j),0.545,0.515,true,350603,350583,349669.16,349916,349915.94,350612.92,,,
choice,canvas.Screen,0_8_40_2,2022-07-15T15:51:40.669Z,,,,0.545,,6,1006.3600000000442,timeout,,,0.545,,0.515,,,9,80,,,,,,,,,,,0.515,true,351604,351602.62,350612.4,350613,350612.92,351619.28,180,,
ITI,canvas.Screen,0_8_40_3,2022-07-15T15:51:41.170Z,,,2355,,,6,499.9799999999814,timeout,,,0.545,,,,,,,,,,,,,,,,,0.515,true,352104,352102.6,351602.62,351604,351619.28,352119.26,,,
trial,flow.Sequence,0_8_40,2022-07-15T15:51:41.171Z,,,,,,6,2916.7399999999907,completion,,,0.545,,,,,,,,,,,,,,,,,0.515,true,352105,352102.6,349169.2,349172,349185.86,352119.26,,,
fixation,canvas.Screen,0_8_41_0,2022-07-15T15:51:41.670Z,,,,,,4,691.7799999999697,timeout,,,0.53,,,,,,,,,,,,,,,,,0.51,false,352603,352602.6,352102.6,352106,352119.26,352811.04,,,
stimulus,canvas.Screen,0_8_41_1,2022-07-15T15:51:42.709Z,,,,,,4,818.960000000021,response,,0.53,0.53,,,https://raw.githubusercontent.com/carero2/loss-perception/main/png/0.53blue1yellowb%3D1w%3D100v%3D45.png,https://raw.githubusercontent.com/carero2/loss-perception/main/png/0.51blue1yellowb%3D1w%3D100v%3D45.png,,,,,,,,,true,f,keypress(f),0.51,0.51,false,353643,353630,352602.6,352811,352811.04,353652.62,,,
choice,canvas.Screen,0_8_41_2,2022-07-15T15:51:43.704Z,,,,0.53,,4,999.960000000021,timeout,,,0.53,,0.51,,,6,86,,,,,,,,,,,0.51,false,354637,354635.9,353650,353649,353652.62,354652.58,186,,
ITI,canvas.Screen,0_8_41_3,2022-07-15T15:51:44.203Z,,,2807,,,4,500.0799999999581,timeout,,,0.53,,,,,,,,,,,,,,,,,0.51,false,355137,355135.98,354635.9,354638,354652.58,355152.66,,,
trial,flow.Sequence,0_8_41,2022-07-15T15:51:44.203Z,,,,,,4,3016.719999999972,completion,,,0.53,,,,,,,,,,,,,,,,,0.51,false,355137,355135.98,352102.6,352106,352119.26,355152.66,,,
fixation,canvas.Screen,0_8_42_0,2022-07-15T15:51:44.703Z,,,,,,6,701.0200000000186,timeout,,,0.485,,,,,,,,,,,,,,,,,0.455,true,355637,355636,355135.98,355139,355152.66,355853.68,,,
stimulus,canvas.Screen,0_8_42_1,2022-07-15T15:51:45.640Z,,,,,,6,697.320000000007,response,,0.455,0.485,,,https://raw.githubusercontent.com/carero2/loss-perception/main/png/0.455blue1yellowb%3D1w%3D100v%3D81.png,https://raw.githubusercontent.com/carero2/loss-perception/main/png/0.485blue1yellowb%3D1w%3D100v%3D81.png,,,,,,,,,true,j,keypress(j),0.485,0.455,true,356573,356551,355636,355854,355853.68,356581,,,
choice,canvas.Screen,0_8_42_2,2022-07-15T15:51:46.636Z,,,,0.485,,6,1005.0599999999977,timeout,,,0.485,,0.455,,,-3,83,,,,,,,,,,,0.455,true,357570,357569.4,356580.54,356581,356581,357586.06,183,,
ITI,canvas.Screen,0_8_42_3,2022-07-15T15:51:47.136Z,,,2122,,,6,500,timeout,,,0.485,,,,,,,,,,,,,,,,,0.455,true,358071,358069.4,357569.4,357571,357586.06,358086.06,,,
trial,flow.Sequence,0_8_42,2022-07-15T15:51:47.137Z,,,,,,6,2916.740000000049,completion,,,0.485,,,,,,,,,,,,,,,,,0.455,true,358071,358069.4,355135.98,355139,355152.66,358086.06,,,
fixation,canvas.Screen,0_8_43_0,2022-07-15T15:51:47.637Z,,,,,,4,714.7800000000279,timeout,,,0.49,,,,,,,,,,,,,,,,,0.47,false,358570,358569.42,358069.4,358072,358086.06,358800.84,,,
stimulus,canvas.Screen,0_8_43_1,2022-07-15T15:51:49.032Z,,,,,,4,1141.1599999999744,response,,0.49,0.49,,,https://raw.githubusercontent.com/carero2/loss-perception/main/png/0.49blue1yellowb%3D1w%3D100v%3D1.png,https://raw.githubusercontent.com/carero2/loss-perception/main/png/0.47blue1yellowb%3D1w%3D100v%3D1.png,,,,,,,,,true,f,keypress(f),0.47,0.47,false,359966,359942,358569.42,358801,358800.84,359986.08,,,
choice,canvas.Screen,0_8_43_2,2022-07-15T15:51:50.037Z,,,,0.49,,4,999.9599999999627,timeout,,,0.49,,0.47,,,-2,81,,,,,,,,,,,0.47,false,360971,360969.38,359983.22,359983,359986.08,360986.04,181,,
ITI,canvas.Screen,0_8_43_3,2022-07-15T15:51:50.537Z,,,2402,,,4,500,timeout,,,0.49,,,,,,,,,,,,,,,,,0.47,false,361471,361469.38,360969.38,360972,360986.04,361486.04,,,
trial,flow.Sequence,0_8_43,2022-07-15T15:51:50.539Z,,,,,,4,3383.320000000007,completion,,,0.49,,,,,,,,,,,,,,,,,0.47,false,361473,361469.38,358069.4,358072,358086.06,361486.04,,,
fixation,canvas.Screen,0_8_44_0,2022-07-15T15:51:51.037Z,,,,,,2,719.820000000007,timeout,,,0.505,,,,,,,,,,,,,,,,,0.495,false,361971,361969.46,361469.38,361475,361486.04,362205.86,,,
stimulus,canvas.Screen,0_8_44_1,2022-07-15T15:51:52.134Z,,,,,,2,845.140000000014,response,,0.505,0.505,,,https://raw.githubusercontent.com/carero2/loss-perception/main/png/0.505blue1yellowb%3D1w%3D100v%3D29.png,https://raw.githubusercontent.com/carero2/loss-perception/main/png/0.495blue1yellowb%3D1w%3D100v%3D29.png,,,,,,,,,true,f,keypress(f),0.495,0.495,false,363068,363051,361969.46,362205,362205.86,363078.86,,,
choice,canvas.Screen,0_8_44_2,2022-07-15T15:51:53.137Z,,,,0.505,,2,1007.320000000007,timeout,,,0.505,,0.495,,,1,82,,,,,,,,,,,0.495,false,364071,364069.52,363078.36,363078,363078.86,364086.18,182,,
ITI,canvas.Screen,0_8_44_3,2022-07-15T15:51:53.637Z,,,2600,,,2,500.0200000000186,timeout,,,0.505,,,,,,,,,,,,,,,,,0.495,false,364571,364569.54,364069.52,364072,364086.18,364586.2,,,
trial,flow.Sequence,0_8_44,2022-07-15T15:51:53.638Z,,,,,,2,3083.5,completion,,,0.505,,,,,,,,,,,,,,,,,0.495,false,364572,364569.54,361469.38,361473,361486.04,364586.2,,,
1st block,flow.Loop,0_8,2022-07-15T15:51:53.639Z,,,,,,,140702.89999999997,completion,,,,,,,,,,,,,,,,,,,,,,364573,364569.54,223864.3,223864,223866.64,364586.2,,,
show amount,html.Screen,0_9,2022-07-15T15:52:06.484Z,,,,,,,12824.799999999988,response,,,,,,,,,,,,,,,,,Continue,click #Continue,,,,377419,377411,364569.54,364577,364586.2,377419.7,,,
second block,canvas.Screen,0_10,2022-07-15T15:52:10.178Z,,,,,,,3678.2999999999884,response,,,,,,,,,,,,,,,,,space,keypress(Space),,,,381111,381098,377417.1,377419,377419.7,381113.92,,,
fixation,canvas.Screen,0_11_0_0,2022-07-15T15:52:10.671Z,,,,,,6,726.6600000000326,timeout,,,0.545,,,,,,,,,,,,,,,,,0.515,false,381604,381603.22,381113.44,381113,381113.92,381840.58,,,
stimulus,canvas.Screen,0_11_0_1,2022-07-15T15:52:11.805Z,,,,,,6,882.4199999999837,response,,0.545,0.545,,,https://raw.githubusercontent.com/carero2/loss-perception/main/png/0.545blue1yellowb%3D1w%3D100v%3D27.png,https://raw.githubusercontent.com/carero2/loss-perception/main/png/0.515blue1yellowb%3D1w%3D100v%3D27.png,,,,,,,,,true,f,keypress(f),0.515,0.515,false,382739,382723,381603.22,381841,381840.58,382752.3,,,
choice,canvas.Screen,0_11_0_2,2022-07-15T15:52:12.804Z,,,,0.545,,6,1000.9800000000396,timeout,,,0.545,,0.515,,,9,,9,,,,,,,,,,0.515,false,383738,383736.62,382751.78,382751,382752.3,383753.28,191,,
ITI,canvas.Screen,0_11_0_3,2022-07-15T15:52:13.304Z,,,2579,,,6,500,timeout,,,0.545,,,,,,,,,,,,,,,,,0.515,false,384238,384236.62,383736.62,383738,383753.28,384253.28,,,
trial,flow.Sequence,0_11_0,2022-07-15T15:52:13.305Z,,,,,,6,3122.7000000000116,completion,,,0.545,,,,,,,,,,,,,,,,,0.515,false,384239,384236.62,381113.44,381113,381113.92,384253.28,,,
fixation,canvas.Screen,0_11_1_0,2022-07-15T15:52:13.804Z,,,,,,2,713.1199999999953,timeout,,,0.495,,,,,,,,,,,,,,,,,0.485,true,384738,384736.6,384236.62,384240,384253.28,384966.4,,,
stimulus,canvas.Screen,0_11_1_1,2022-07-15T15:52:15.087Z,,,,,,2,1038.5999999999767,response,,0.485,0.495,,,https://raw.githubusercontent.com/carero2/loss-perception/main/png/0.485blue1yellowb%3D1w%3D100v%3D2.png,https://raw.githubusercontent.com/carero2/loss-perception/main/png/0.495blue1yellowb%3D1w%3D100v%3D2.png,,,,,,,,,true,j,keypress(j),0.495,0.485,true,386021,386005,384736.6,384967,384966.4,386031.36,,,
choice,canvas.Screen,0_11_1_2,2022-07-15T15:52:16.088Z,,,,0.495,,2,1005.2000000000116,timeout,,,0.495,,0.485,,,-1,,8,,,,,,,,,,0.485,true,387021,387019.9,386030.78,386030,386031.36,387036.56,190,,
ITI,canvas.Screen,0_11_1_3,2022-07-15T15:52:16.587Z,,,2027,,,2,500.0999999999767,timeout,,,0.495,,,,,,,,,,,,,,,,,0.485,true,387521,387520,387019.9,387022,387036.56,387536.66,,,
trial,flow.Sequence,0_11_1,2022-07-15T15:52:16.588Z,,,,,,2,3266.719999999972,completion,,,0.495,,,,,,,,,,,,,,,,,0.485,true,387522,387520,384236.62,384240,384253.28,387536.66,,,
fixation,canvas.Screen,0_11_2_0,2022-07-15T15:52:17.087Z,,,,,,4,706.3000000000466,timeout,,,0.49,,,,,,,,,,,,,,,,,0.47,false,388021,388020,387520,387523,387536.66,388242.96,,,
stimulus,canvas.Screen,0_11_2_1,2022-07-15T15:52:18.647Z,,,,,,4,1324.039999999979,response,,0.49,0.49,,,https://raw.githubusercontent.com/carero2/loss-perception/main/png/0.49blue1yellowb%3D1w%3D100v%3D95.png,https://raw.githubusercontent.com/carero2/loss-perception/main/png/0.47blue1yellowb%3D1w%3D100v%3D95.png,,,,,,,,,true,f,keypress(f),0.47,0.47,false,389581,389567,388020,388243,388242.96,389593.58,,,
choice,canvas.Screen,0_11_2_2,2022-07-15T15:52:19.637Z,,,,0.49,,4,993.0599999999977,timeout,,,0.49,,0.47,,,-2,,6,,,,,,,,,,0.47,false,390571,390569.98,389592.9,389593,389593.58,390586.64,188,,
ITI,canvas.Screen,0_11_2_3,2022-07-15T15:52:20.137Z,,,2220,,,4,500.0799999999581,timeout,,,0.49,,,,,,,,,,,,,,,,,0.47,false,391071,391070.06,390569.98,390571,390586.64,391086.72,,,
trial,flow.Sequence,0_11_2,2022-07-15T15:52:20.138Z,,,,,,4,3533.4000000000233,completion,,,0.49,,,,,,,,,,,,,,,,,0.47,false,391072,391070.06,387520,387522,387536.66,391086.72,,,
fixation,canvas.Screen,0_11_3_0,2022-07-15T15:52:20.637Z,,,,,,4,716.0200000000186,timeout,,,0.51,,,,,,,,,,,,,,,,,0.49,true,391571,391570.1,391070.06,391072,391086.72,391802.74,,,
stimulus,canvas.Screen,0_11_3_1,2022-07-15T15:52:21.771Z,,,,,,4,873.2600000000093,response,,0.49,0.51,,,https://raw.githubusercontent.com/carero2/loss-perception/main/png/0.49blue1yellowb%3D1w%3D100v%3D88.png,https://raw.githubusercontent.com/carero2/loss-perception/main/png/0.51blue1yellowb%3D1w%3D100v%3D88.png,,,,,,,,,true,j,keypress(j),0.51,0.49,true,392704,392676,391570.1,391803,391802.74,392713.46,,,
choice,canvas.Screen,0_11_3_2,2022-07-15T15:52:22.771Z,,,,0.51,,4,1006.679999999993,timeout,,,0.51,,0.49,,,2,,8,,,,,,,,,,0.49,true,393705,393703.48,392713.02,392713,392713.46,393720.14,190,,
ITI,canvas.Screen,0_11_3_3,2022-07-15T15:52:23.271Z,,,2620,,,4,500.0199999999604,timeout,,,0.51,,,,,,,,,,,,,,,,,0.49,true,394205,394203.5,393703.48,393705,393720.14,394220.16,,,
trial,flow.Sequence,0_11_3,2022-07-15T15:52:23.271Z,,,,,,4,3116.780000000028,completion,,,0.51,,,,,,,,,,,,,,,,,0.49,true,394205,394203.5,391070.06,391072,391086.72,394220.16,,,
fixation,canvas.Screen,0_11_4_0,2022-07-15T15:52:23.771Z,,,,,,4,709.8600000000442,timeout,,,0.53,,,,,,,,,,,,,,,,,0.51,true,394705,394703.5,394203.5,394206,394220.16,394930.02,,,
stimulus,canvas.Screen,0_11_4_1,2022-07-15T15:52:24.757Z,,,,,,4,745.9799999999814,response,,0.51,0.53,,,https://raw.githubusercontent.com/carero2/loss-perception/main/png/0.51blue1yellowb%3D1w%3D100v%3D16.png,https://raw.githubusercontent.com/carero2/loss-perception/main/png/0.53blue1yellowb%3D1w%3D100v%3D16.png,,,,,,,,,true,j,keypress(j),0.53,0.51,true,395691,395676,394703.5,394930,394930.02,395698.78,,,
choice,canvas.Screen,0_11_4_2,2022-07-15T15:52:25.754Z,,,,0.53,,4,1004.7599999999511,timeout,,,0.53,,0.51,,,6,,14,,,,,,,,,,0.51,true,396688,396686.86,395698.32,395699,395698.78,396703.54,196,,
ITI,canvas.Screen,0_11_4_3,2022-07-15T15:52:26.254Z,,,2288,,,4,499.9800000000396,timeout,,,0.53,,,,,,,,,,,,,,,,,0.51,true,397188,397186.86,396686.86,396689,396703.54,397203.52,,,
trial,flow.Sequence,0_11_4,2022-07-15T15:52:26.255Z,,,,,,4,2966.7000000000116,completion,,,0.53,,,,,,,,,,,,,,,,,0.51,true,397189,397186.86,394203.5,394206,394220.16,397203.52,,,
fixation,canvas.Screen,0_11_5_0,2022-07-15T15:52:26.754Z,,,,,,2,711.7999999999884,timeout,,,0.515,,,,,,,,,,,,,,,,,0.505,true,397688,397686.9,397186.86,397189,397203.52,397915.32,,,
stimulus,canvas.Screen,0_11_5_1,2022-07-15T15:52:27.784Z,,,,,,2,791.679999999993,response,,0.505,0.515,,,https://raw.githubusercontent.com/carero2/loss-perception/main/png/0.505blue1yellowb%3D1w%3D100v%3D11.png,https://raw.githubusercontent.com/carero2/loss-perception/main/png/0.515blue1yellowb%3D1w%3D100v%3D11.png,,,,,,,,,true,j,keypress(j),0.515,0.505,true,398719,398707,397686.9,397915,397915.32,398726.94,,,
choice,canvas.Screen,0_11_5_2,2022-07-15T15:52:28.771Z,,,,0.515,,2,993.3400000000256,timeout,,,0.515,,0.505,,,3,,17,,,,,,,,,,0.505,true,399705,399703.6,398726.46,398726,398726.94,399720.28,199,,
ITI,canvas.Screen,0_11_5_3,2022-07-15T15:52:29.271Z,,,2401,,,2,499.8999999999651,timeout,,,0.515,,,,,,,,,,,,,,,,,0.505,true,400205,400203.52,399703.6,399705,399720.28,400220.18,,,
trial,flow.Sequence,0_11_5,2022-07-15T15:52:29.272Z,,,,,,2,3000,completion,,,0.515,,,,,,,,,,,,,,,,,0.505,true,400206,400203.52,397186.86,397189,397203.52,400220.18,,,
fixation,canvas.Screen,0_11_6_0,2022-07-15T15:52:29.771Z,,,,,,6,711.4799999999814,timeout,,,0.485,,,,,,,,,,,,,,,,,0.455,false,400705,400703.62,400203.52,400206,400220.18,400931.66,,,
stimulus,canvas.Screen,0_11_6_1,2022-07-15T15:52:31.039Z,,,,,,6,1025.3400000000256,response,,0.485,0.485,,,https://raw.githubusercontent.com/carero2/loss-perception/main/png/0.485blue1yellowb%3D1w%3D100v%3D57.png,https://raw.githubusercontent.com/carero2/loss-perception/main/png/0.455blue1yellowb%3D1w%3D100v%3D57.png,,,,,,,,,true,f,keypress(f),0.455,0.455,false,401974,401957,400703.62,400932,400931.66,401982.5,,,
choice,canvas.Screen,0_11_6_2,2022-07-15T15:52:32.037Z,,,,0.485,,6,1004.4199999999837,timeout,,,0.485,,0.455,,,-3,,14,,,,,,,,,,0.455,false,402972,402970.26,401981.96,401982,401982.5,402986.92,196,,
ITI,canvas.Screen,0_11_6_3,2022-07-15T15:52:32.537Z,,,2858,,,6,500.1000000000349,timeout,,,0.485,,,,,,,,,,,,,,,,,0.455,false,403472,403470.34,402970.26,402972,402986.92,403487.02,,,
trial,flow.Sequence,0_11_6,2022-07-15T15:52:32.538Z,,,,,,6,3250.1600000000326,completion,,,0.485,,,,,,,,,,,,,,,,,0.455,false,403472,403470.34,400203.52,400206,400220.18,403487.02,,,
fixation,canvas.Screen,0_11_7_0,2022-07-15T15:52:33.038Z,,,,,,2,720.359999999986,timeout,,,0.505,,,,,,,,,,,,,,,,,0.495,true,403971,403970.32,403470.34,403473,403487.02,404207.38,,,
stimulus,canvas.Screen,0_11_7_1,2022-07-15T15:52:34.610Z,,,,,,2,1329.6199999999953,response,,0.495,0.505,,,https://raw.githubusercontent.com/carero2/loss-perception/main/png/0.495blue1yellowb%3D1w%3D100v%3D70.png,https://raw.githubusercontent.com/carero2/loss-perception/main/png/0.505blue1yellowb%3D1w%3D100v%3D70.png,,,,,,,,,true,f,keypress(f),0.505,0.495,true,405543,405537,403970.32,404207,404207.38,405554.5,,,
choice,canvas.Screen,0_11_7_2,2022-07-15T15:52:35.604Z,,,,0.495,,2,999.2399999999907,timeout,,,0.505,,0.505,,,-1,,13,,,,,,,,,,0.495,true,406538,406537.08,405553.82,405554,405554.5,406553.74,195,,
ITI,canvas.Screen,0_11_7_3,2022-07-15T15:52:36.105Z,,,2191,,,2,499.9799999999814,timeout,,,0.505,,,,,,,,,,,,,,,,,0.495,true,407038,407037.06,406537.08,406538,406553.74,407053.72,,,
trial,flow.Sequence,0_11_7,2022-07-15T15:52:36.105Z,,,,,,2,3550.039999999979,completion,,,0.505,,,,,,,,,,,,,,,,,0.495,true,407039,407037.06,403470.34,403473,403487.02,407053.72,,,
fixation,canvas.Screen,0_11_8_0,2022-07-15T15:52:36.607Z,,,,,,6,706.9800000000396,timeout,,,0.515,,,,,,,,,,,,,,,,,0.485,true,407540,407537.1,407037.06,407039,407053.72,407760.7,,,
stimulus,canvas.Screen,0_11_8_1,2022-07-15T15:52:37.450Z,,,,,,6,603.2999999999884,response,,0.485,0.515,,,https://raw.githubusercontent.com/carero2/loss-perception/main/png/0.485blue1yellowb%3D1w%3D100v%3D62.png,https://raw.githubusercontent.com/carero2/loss-perception/main/png/0.515blue1yellowb%3D1w%3D100v%3D62.png,,,,,,,,,true,j,keypress(j),0.515,0.485,true,408383,408364,407537.1,407761,407760.7,408396.32,,,
choice,canvas.Screen,0_11_8_2,2022-07-15T15:52:38.455Z,,,,0.515,,6,1007.3999999999651,timeout,,,0.515,,0.485,,,3,,16,,,,,,,,,,0.485,true,409389,409387.06,408395.78,408396,408396.32,409403.72,198,,
ITI,canvas.Screen,0_11_8_3,2022-07-15T15:52:38.955Z,,,2219,,,6,500.0800000000163,timeout,,,0.515,,,,,,,,,,,,,,,,,0.485,true,409889,409887.14,409387.06,409390,409403.72,409903.8,,,
trial,flow.Sequence,0_11_8,2022-07-15T15:52:38.955Z,,,,,,6,2833.420000000042,completion,,,0.515,,,,,,,,,,,,,,,,,0.485,true,409889,409887.14,407037.06,407039,407053.72,409903.8,,,
fixation,canvas.Screen,0_11_9_0,2022-07-15T15:52:39.455Z,,,,,,2,717.460000000021,timeout,,,0.515,,,,,,,,,,,,,,,,,0.505,false,410388,410387.16,409887.14,409890,409903.8,410621.26,,,
stimulus,canvas.Screen,0_11_9_1,2022-07-15T15:52:40.586Z,,,,,,2,883.7399999999907,response,,0.515,0.515,,,https://raw.githubusercontent.com/carero2/loss-perception/main/png/0.515blue1yellowb%3D1w%3D100v%3D42.png,https://raw.githubusercontent.com/carero2/loss-perception/main/png/0.505blue1yellowb%3D1w%3D100v%3D42.png,,,,,,,,,true,f,keypress(f),0.505,0.505,false,411520,411505,410387.16,410621,410621.26,411529.94,,,
choice,canvas.Screen,0_11_9_2,2022-07-15T15:52:41.588Z,,,,0.515,,2,1007.2600000000093,timeout,,,0.515,,0.505,,,3,,19,,,,,,,,,,0.505,false,412522,412520.54,411529.38,411529,411529.94,412537.2,201,,
ITI,canvas.Screen,0_11_9_3,2022-07-15T15:52:42.088Z,,,2050,,,2,500.0199999999604,timeout,,,0.515,,,,,,,,,,,,,,,,,0.505,false,413022,413020.54,412520.54,412523,412537.2,413037.22,,,
trial,flow.Sequence,0_11_9,2022-07-15T15:52:42.089Z,,,,,,2,3116.7399999999907,completion,,,0.515,,,,,,,,,,,,,,,,,0.505,false,413023,413020.54,409887.14,409890,409903.8,413037.22,,,
fixation,canvas.Screen,0_11_10_0,2022-07-15T15:52:42.588Z,,,,,,2,708.5800000000163,timeout,,,0.505,,,,,,,,,,,,,,,,,0.495,true,413523,413520.56,413020.54,413024,413037.22,413745.8,,,
stimulus,canvas.Screen,0_11_10_1,2022-07-15T15:52:43.735Z,,,,,,2,915.2000000000116,response,,0.495,0.505,,,https://raw.githubusercontent.com/carero2/loss-perception/main/png/0.495blue1yellowb%3D1w%3D100v%3D76.png,https://raw.githubusercontent.com/carero2/loss-perception/main/png/0.505blue1yellowb%3D1w%3D100v%3D76.png,,,,,,,,,true,j,keypress(j),0.505,0.495,true,414669,414661,413520.56,413746,413745.8,414680.68,,,
choice,canvas.Screen,0_11_10_2,2022-07-15T15:52:44.738Z,,,,0.505,,2,1006.5800000000163,timeout,,,0.505,,0.495,,,1,,20,,,,,,,,,,0.495,true,415672,415670.6,414680.1,414680,414680.68,415687.26,202,,
ITI,canvas.Screen,0_11_10_3,2022-07-15T15:52:45.238Z,,,2573,,,2,499.9199999999837,timeout,,,0.505,,,,,,,,,,,,,,,,,0.495,true,416172,416170.52,415670.6,415672,415687.26,416187.18,,,
trial,flow.Sequence,0_11_10,2022-07-15T15:52:45.239Z,,,,,,2,3133.3000000000466,completion,,,0.505,,,,,,,,,,,,,,,,,0.495,true,416173,416170.52,413020.54,413023,413037.22,416187.18,,,
fixation,canvas.Screen,0_11_11_0,2022-07-15T15:52:45.738Z,,,,,,6,707.4000000000233,timeout,,,0.545,,,,,,,,,,,,,,,,,0.515,false,416672,416670.62,416170.52,416173,416187.18,416894.58,,,
stimulus,canvas.Screen,0_11_11_1,2022-07-15T15:52:46.705Z,,,,,,6,734.4199999999837,response,,0.545,0.545,,,https://raw.githubusercontent.com/carero2/loss-perception/main/png/0.545blue1yellowb%3D1w%3D100v%3D42.png,https://raw.githubusercontent.com/carero2/loss-perception/main/png/0.515blue1yellowb%3D1w%3D100v%3D42.png,,,,,,,,,true,f,keypress(f),0.515,0.515,false,417640,417629,416670.62,416895,416894.58,417649.12,,,
choice,canvas.Screen,0_11_11_2,2022-07-15T15:52:47.705Z,,,,0.545,,6,1004.8800000000047,timeout,,,0.545,,0.515,,,9,,29,,,,,,,,,,0.515,false,418638,418637.34,417648.46,417649,417649.12,418654,211,,
ITI,canvas.Screen,0_11_11_3,2022-07-15T15:52:48.204Z,,,2493,,,6,500,timeout,,,0.545,,,,,,,,,,,,,,,,,0.515,false,419138,419137.34,418637.34,418639,418654,419154,,,
trial,flow.Sequence,0_11_11,2022-07-15T15:52:48.205Z,,,,,,6,2950.1600000000326,completion,,,0.545,,,,,,,,,,,,,,,,,0.515,false,419139,419137.34,416170.52,416173,416187.18,419154,,,
fixation,canvas.Screen,0_11_12_0,2022-07-15T15:52:48.704Z,,,,,,4,704.2999999999884,timeout,,,0.51,,,,,,,,,,,,,,,,,0.49,false,419638,419637.36,419137.34,419140,419154,419858.3,,,
stimulus,canvas.Screen,0_11_12_1,2022-07-15T15:52:49.773Z,,,,,,4,833.7000000000116,response,,0.51,0.51,,,https://raw.githubusercontent.com/carero2/loss-perception/main/png/0.51blue1yellowb%3D1w%3D100v%3D50.png,https://raw.githubusercontent.com/carero2/loss-perception/main/png/0.49blue1yellowb%3D1w%3D100v%3D50.png,,,,,,,,,true,f,keypress(f),0.49,0.49,false,420706,420692,419637.36,419859,419858.3,420716.76,,,
choice,canvas.Screen,0_11_12_2,2022-07-15T15:52:50.772Z,,,,0.51,,4,1003.9599999999627,timeout,,,0.51,,0.49,,,2,,31,,,,,,,,,,0.49,false,421705,421704.06,420716.22,420716,420716.76,421720.72,213,,
ITI,canvas.Screen,0_11_12_3,2022-07-15T15:52:51.271Z,,,2298,,,4,500.0200000000186,timeout,,,0.51,,,,,,,,,,,,,,,,,0.49,false,422205,422204.08,421704.06,421705,421720.72,422220.74,,,
trial,flow.Sequence,0_11_12,2022-07-15T15:52:51.272Z,,,,,,4,3050.0800000000163,completion,,,0.51,,,,,,,,,,,,,,,,,0.49,false,422206,422204.08,419137.34,419139,419154,422220.74,,,
